Timestamp UTC,Accelerometer X,Accelerometer Y,Accelerometer Z,label
2020-07-31 17:26:30.000,,,,7.0
2020-07-31 17:26:30.003,,,,7.0
2020-07-31 17:26:30.007,,,,7.0
2020-07-31 17:26:30.011,,,,7.0
2020-07-31 17:26:30.015,,,,7.0
2020-07-31 17:26:30.019,,,,7.0
2020-07-31 17:26:30.023,,,,7.0
2020-07-31 17:26:30.027,,,,7.0
2020-07-31 17:26:30.031,,,,7.0
2020-07-31 17:26:30.035,,,,7.0
2020-07-31 17:26:30.039,,,,7.0
2020-07-31 17:26:30.042,,,,7.0
2020-07-31 17:26:30.046,,,,7.0
2020-07-31 17:26:30.050,,,,7.0
2020-07-31 17:26:30.054,,,,7.0
2020-07-31 17:26:30.058,,,,7.0
2020-07-31 17:26:30.062,,,,7.0
2020-07-31 17:26:30.066,,,,7.0
2020-07-31 17:26:30.070,,,,7.0
2020-07-31 17:26:30.074,,,,7.0
2020-07-31 17:26:30.078,,,,7.0
2020-07-31 17:26:30.082,,,,7.0
2020-07-31 17:26:30.085,,,,7.0
2020-07-31 17:26:30.089,,,,7.0
2020-07-31 17:26:30.093,,,,7.0
2020-07-31 17:26:30.097,,,,7.0
2020-07-31 17:26:30.101,,,,7.0
2020-07-31 17:26:30.105,,,,7.0
2020-07-31 17:26:30.109,,,,7.0
2020-07-31 17:26:30.113,,,,7.0
2020-07-31 17:26:30.117,,,,7.0
2020-07-31 17:26:30.121,,,,7.0
2020-07-31 17:26:30.125,,,,7.0
2020-07-31 17:26:30.128,,,,7.0
2020-07-31 17:26:30.132,,,,7.0
2020-07-31 17:26:30.136,,,,7.0
2020-07-31 17:26:30.140,,,,7.0
2020-07-31 17:26:30.144,,,,7.0
2020-07-31 17:26:30.148,,,,7.0
2020-07-31 17:26:30.152,,,,7.0
2020-07-31 17:26:30.156,,,,7.0
2020-07-31 17:26:30.160,,,,7.0
2020-07-31 17:26:30.164,,,,7.0
2020-07-31 17:26:30.167,,,,7.0
2020-07-31 17:26:30.171,,,,7.0
2020-07-31 17:26:30.175,,,,7.0
2020-07-31 17:26:30.179,,,,7.0
2020-07-31 17:26:30.183,,,,7.0
2020-07-31 17:26:30.187,,,,7.0
2020-07-31 17:26:30.191,,,,7.0
2020-07-31 17:26:30.195,,,,7.0
2020-07-31 17:26:30.199,,,,7.0
2020-07-31 17:26:30.203,,,,7.0
2020-07-31 17:26:30.207,,,,7.0
2020-07-31 17:26:30.210,,,,7.0
2020-07-31 17:26:30.214,,,,7.0
2020-07-31 17:26:30.218,,,,7.0
2020-07-31 17:26:30.222,,,,7.0
2020-07-31 17:26:30.226,,,,7.0
2020-07-31 17:26:30.230,,,,7.0
2020-07-31 17:26:30.234,,,,7.0
2020-07-31 17:26:30.238,,,,7.0
2020-07-31 17:26:30.242,,,,7.0
2020-07-31 17:26:30.246,,,,7.0
2020-07-31 17:26:30.250,,,,7.0
2020-07-31 17:26:30.253,,,,7.0
2020-07-31 17:26:30.257,,,,7.0
2020-07-31 17:26:30.261,,,,7.0
2020-07-31 17:26:30.265,,,,7.0
2020-07-31 17:26:30.269,,,,7.0
2020-07-31 17:26:30.273,,,,7.0
2020-07-31 17:26:30.277,,,,7.0
2020-07-31 17:26:30.281,,,,7.0
2020-07-31 17:26:30.285,,,,7.0
2020-07-31 17:26:30.289,,,,7.0
2020-07-31 17:26:30.292,,,,7.0
2020-07-31 17:26:30.296,,,,7.0
2020-07-31 17:26:30.300,,,,7.0
2020-07-31 17:26:30.304,,,,7.0
2020-07-31 17:26:30.308,,,,7.0
2020-07-31 17:26:30.312,,,,7.0
2020-07-31 17:26:30.316,,,,7.0
2020-07-31 17:26:30.320,,,,7.0
2020-07-31 17:26:30.324,,,,7.0
2020-07-31 17:26:30.328,,,,7.0
2020-07-31 17:26:30.332,,,,7.0
2020-07-31 17:26:30.335,,,,7.0
2020-07-31 17:26:30.339,,,,7.0
2020-07-31 17:26:30.343,,,,7.0
2020-07-31 17:26:30.347,,,,7.0
2020-07-31 17:26:30.351,,,,7.0
2020-07-31 17:26:30.355,,,,7.0
2020-07-31 17:26:30.359,,,,7.0
2020-07-31 17:26:30.363,,,,7.0
2020-07-31 17:26:30.367,,,,7.0
2020-07-31 17:26:30.371,,,,7.0
2020-07-31 17:26:30.375,,,,7.0
2020-07-31 17:26:30.378,,,,7.0
2020-07-31 17:26:30.382,,,,7.0
2020-07-31 17:26:30.386,,,,7.0
2020-07-31 17:26:30.390,,,,7.0
2020-07-31 17:26:30.394,,,,7.0
2020-07-31 17:26:30.398,,,,7.0
2020-07-31 17:26:30.402,,,,7.0
2020-07-31 17:26:30.406,,,,7.0
2020-07-31 17:26:30.410,,,,7.0
2020-07-31 17:26:30.414,,,,7.0
2020-07-31 17:26:30.417,,,,7.0
2020-07-31 17:26:30.421,,,,7.0
2020-07-31 17:26:30.425,,,,7.0
2020-07-31 17:26:30.429,,,,7.0
2020-07-31 17:26:30.433,,,,7.0
2020-07-31 17:26:30.437,,,,7.0
2020-07-31 17:26:30.441,,,,7.0
2020-07-31 17:26:30.445,,,,7.0
2020-07-31 17:26:30.449,,,,7.0
2020-07-31 17:26:30.453,,,,7.0
2020-07-31 17:26:30.457,,,,7.0
2020-07-31 17:26:30.460,,,,7.0
2020-07-31 17:26:30.464,,,,7.0
2020-07-31 17:26:30.468,,,,7.0
2020-07-31 17:26:30.472,,,,7.0
2020-07-31 17:26:30.476,,,,7.0
2020-07-31 17:26:30.480,,,,7.0
2020-07-31 17:26:30.484,,,,7.0
2020-07-31 17:26:30.488,,,,7.0
2020-07-31 17:26:30.492,,,,7.0
2020-07-31 17:26:30.496,,,,7.0
2020-07-31 17:26:30.500,,,,7.0
2020-07-31 17:26:30.503,,,,7.0
2020-07-31 17:26:30.507,,,,7.0
2020-07-31 17:26:30.511,,,,7.0
2020-07-31 17:26:30.515,,,,7.0
2020-07-31 17:26:30.519,,,,7.0
2020-07-31 17:26:30.523,,,,7.0
2020-07-31 17:26:30.527,,,,7.0
2020-07-31 17:26:30.531,,,,7.0
2020-07-31 17:26:30.535,,,,7.0
2020-07-31 17:26:30.539,,,,7.0
2020-07-31 17:26:30.542,,,,7.0
2020-07-31 17:26:30.546,,,,7.0
2020-07-31 17:26:30.550,,,,7.0
2020-07-31 17:26:30.554,,,,7.0
2020-07-31 17:26:30.558,,,,7.0
2020-07-31 17:26:30.562,,,,7.0
2020-07-31 17:26:30.566,,,,7.0
2020-07-31 17:26:30.570,,,,7.0
2020-07-31 17:26:30.574,,,,7.0
2020-07-31 17:26:30.578,,,,7.0
2020-07-31 17:26:30.582,,,,7.0
2020-07-31 17:26:30.585,,,,7.0
2020-07-31 17:26:30.589,,,,7.0
2020-07-31 17:26:30.593,,,,7.0
2020-07-31 17:26:30.597,,,,7.0
2020-07-31 17:26:30.601,,,,7.0
2020-07-31 17:26:30.605,,,,7.0
2020-07-31 17:26:30.609,,,,7.0
2020-07-31 17:26:30.613,,,,7.0
2020-07-31 17:26:30.617,,,,7.0
2020-07-31 17:26:30.621,,,,7.0
2020-07-31 17:26:30.625,,,,7.0
2020-07-31 17:26:30.628,,,,7.0
2020-07-31 17:26:30.632,,,,7.0
2020-07-31 17:26:30.636,,,,7.0
2020-07-31 17:26:30.640,,,,7.0
2020-07-31 17:26:30.644,,,,7.0
2020-07-31 17:26:30.648,,,,7.0
2020-07-31 17:26:30.652,,,,7.0
2020-07-31 17:26:30.656,,,,7.0
2020-07-31 17:26:30.660,,,,7.0
2020-07-31 17:26:30.664,,,,7.0
2020-07-31 17:26:30.667,,,,7.0
2020-07-31 17:26:30.671,,,,7.0
2020-07-31 17:26:30.675,,,,7.0
2020-07-31 17:26:30.679,,,,7.0
2020-07-31 17:26:30.683,,,,7.0
2020-07-31 17:26:30.687,,,,7.0
2020-07-31 17:26:30.691,,,,7.0
2020-07-31 17:26:30.695,,,,7.0
2020-07-31 17:26:30.699,,,,7.0
2020-07-31 17:26:30.703,,,,7.0
2020-07-31 17:26:30.707,,,,7.0
2020-07-31 17:26:30.710,,,,7.0
2020-07-31 17:26:30.714,,,,7.0
2020-07-31 17:26:30.718,,,,7.0
2020-07-31 17:26:30.722,,,,7.0
2020-07-31 17:26:30.726,,,,7.0
2020-07-31 17:26:30.730,,,,7.0
2020-07-31 17:26:30.734,,,,7.0
2020-07-31 17:26:30.738,,,,7.0
2020-07-31 17:26:30.742,,,,7.0
2020-07-31 17:26:30.746,,,,7.0
2020-07-31 17:26:30.750,,,,7.0
2020-07-31 17:26:30.753,,,,7.0
2020-07-31 17:26:30.757,,,,7.0
2020-07-31 17:26:30.761,,,,7.0
2020-07-31 17:26:30.765,,,,7.0
2020-07-31 17:26:30.769,,,,7.0
2020-07-31 17:26:30.773,,,,7.0
2020-07-31 17:26:30.777,,,,7.0
2020-07-31 17:26:30.781,,,,7.0
2020-07-31 17:26:30.785,,,,7.0
2020-07-31 17:26:30.789,,,,7.0
2020-07-31 17:26:30.792,,,,7.0
2020-07-31 17:26:30.796,,,,7.0
2020-07-31 17:26:30.800,,,,7.0
2020-07-31 17:26:30.804,,,,7.0
2020-07-31 17:26:30.808,,,,7.0
2020-07-31 17:26:30.812,,,,7.0
2020-07-31 17:26:30.816,,,,7.0
2020-07-31 17:26:30.820,,,,7.0
2020-07-31 17:26:30.824,,,,7.0
2020-07-31 17:26:30.828,,,,7.0
2020-07-31 17:26:30.832,,,,7.0
2020-07-31 17:26:30.835,,,,7.0
2020-07-31 17:26:30.839,,,,7.0
2020-07-31 17:26:30.843,,,,7.0
2020-07-31 17:26:30.847,,,,7.0
2020-07-31 17:26:30.851,,,,7.0
2020-07-31 17:26:30.855,,,,7.0
2020-07-31 17:26:30.859,,,,7.0
2020-07-31 17:26:30.863,,,,7.0
2020-07-31 17:26:30.867,,,,7.0
2020-07-31 17:26:30.871,,,,7.0
2020-07-31 17:26:30.875,,,,7.0
2020-07-31 17:26:30.878,,,,7.0
2020-07-31 17:26:30.882,,,,7.0
2020-07-31 17:26:30.886,,,,7.0
2020-07-31 17:26:30.890,,,,7.0
2020-07-31 17:26:30.894,,,,7.0
2020-07-31 17:26:30.898,,,,7.0
2020-07-31 17:26:30.902,,,,7.0
2020-07-31 17:26:30.906,,,,7.0
2020-07-31 17:26:30.910,,,,7.0
2020-07-31 17:26:30.914,,,,7.0
2020-07-31 17:26:30.917,,,,7.0
2020-07-31 17:26:30.921,,,,7.0
2020-07-31 17:26:30.925,,,,7.0
2020-07-31 17:26:30.929,,,,7.0
2020-07-31 17:26:30.933,,,,7.0
2020-07-31 17:26:30.937,,,,7.0
2020-07-31 17:26:30.941,,,,7.0
2020-07-31 17:26:30.945,,,,7.0
2020-07-31 17:26:30.949,,,,7.0
2020-07-31 17:26:30.953,,,,7.0
2020-07-31 17:26:30.957,,,,7.0
2020-07-31 17:26:30.960,,,,7.0
2020-07-31 17:26:30.964,,,,7.0
2020-07-31 17:26:30.968,,,,7.0
2020-07-31 17:26:30.972,,,,7.0
2020-07-31 17:26:30.976,,,,7.0
2020-07-31 17:26:30.980,,,,7.0
2020-07-31 17:26:30.984,,,,7.0
2020-07-31 17:26:30.988,,,,7.0
2020-07-31 17:26:30.992,,,,7.0
2020-07-31 17:26:30.996,,,,7.0
2020-07-31 17:26:31.000,,,,7.0
2020-07-31 17:26:31.003,,,,7.0
2020-07-31 17:26:31.007,,,,7.0
2020-07-31 17:26:31.011,,,,7.0
2020-07-31 17:26:31.015,,,,7.0
2020-07-31 17:26:31.019,,,,7.0
2020-07-31 17:26:31.023,,,,7.0
2020-07-31 17:26:31.027,,,,7.0
2020-07-31 17:26:31.031,,,,7.0
2020-07-31 17:26:31.035,,,,7.0
2020-07-31 17:26:31.039,,,,7.0
2020-07-31 17:26:31.042,,,,7.0
2020-07-31 17:26:31.046,,,,7.0
2020-07-31 17:26:31.050,,,,7.0
2020-07-31 17:26:31.054,,,,7.0
2020-07-31 17:26:31.058,,,,7.0
2020-07-31 17:26:31.062,,,,7.0
2020-07-31 17:26:31.066,,,,7.0
2020-07-31 17:26:31.070,,,,7.0
2020-07-31 17:26:31.074,,,,7.0
2020-07-31 17:26:31.078,,,,7.0
2020-07-31 17:26:31.082,,,,7.0
2020-07-31 17:26:31.085,,,,7.0
2020-07-31 17:26:31.089,,,,7.0
2020-07-31 17:26:31.093,,,,7.0
2020-07-31 17:26:31.097,,,,7.0
2020-07-31 17:26:31.101,,,,7.0
2020-07-31 17:26:31.105,,,,7.0
2020-07-31 17:26:31.109,,,,7.0
2020-07-31 17:26:31.113,,,,7.0
2020-07-31 17:26:31.117,,,,7.0
2020-07-31 17:26:31.121,,,,7.0
2020-07-31 17:26:31.125,,,,7.0
2020-07-31 17:26:31.128,,,,7.0
2020-07-31 17:26:31.132,,,,7.0
2020-07-31 17:26:31.136,,,,7.0
2020-07-31 17:26:31.140,,,,7.0
2020-07-31 17:26:31.144,,,,7.0
2020-07-31 17:26:31.148,,,,7.0
2020-07-31 17:26:31.152,,,,7.0
2020-07-31 17:26:31.156,,,,7.0
2020-07-31 17:26:31.160,,,,7.0
2020-07-31 17:26:31.164,,,,7.0
2020-07-31 17:26:31.167,,,,7.0
2020-07-31 17:26:31.171,,,,7.0
2020-07-31 17:26:31.175,,,,7.0
2020-07-31 17:26:31.179,,,,7.0
2020-07-31 17:26:31.183,,,,7.0
2020-07-31 17:26:31.187,,,,7.0
2020-07-31 17:26:31.191,,,,7.0
2020-07-31 17:26:31.195,,,,7.0
2020-07-31 17:26:31.199,,,,7.0
2020-07-31 17:26:31.203,,,,7.0
2020-07-31 17:26:31.207,,,,7.0
2020-07-31 17:26:31.210,,,,7.0
2020-07-31 17:26:31.214,,,,7.0
2020-07-31 17:26:31.218,,,,7.0
2020-07-31 17:26:31.222,,,,7.0
2020-07-31 17:26:31.226,,,,7.0
2020-07-31 17:26:31.230,,,,7.0
2020-07-31 17:26:31.234,,,,7.0
2020-07-31 17:26:31.238,,,,7.0
2020-07-31 17:26:31.242,,,,7.0
2020-07-31 17:26:31.246,,,,7.0
2020-07-31 17:26:31.250,,,,7.0
2020-07-31 17:26:31.253,,,,7.0
2020-07-31 17:26:31.257,,,,7.0
2020-07-31 17:26:31.261,,,,7.0
2020-07-31 17:26:31.265,,,,7.0
2020-07-31 17:26:31.269,,,,7.0
2020-07-31 17:26:31.273,,,,7.0
2020-07-31 17:26:31.277,,,,7.0
2020-07-31 17:26:31.281,,,,7.0
2020-07-31 17:26:31.285,,,,7.0
2020-07-31 17:26:31.289,,,,7.0
2020-07-31 17:26:31.292,,,,7.0
2020-07-31 17:26:31.296,,,,7.0
2020-07-31 17:26:31.300,,,,7.0
2020-07-31 17:26:31.304,,,,7.0
2020-07-31 17:26:31.308,,,,7.0
2020-07-31 17:26:31.312,,,,7.0
2020-07-31 17:26:31.316,,,,7.0
2020-07-31 17:26:31.320,,,,7.0
2020-07-31 17:26:31.324,,,,7.0
2020-07-31 17:26:31.328,,,,7.0
2020-07-31 17:26:31.332,,,,7.0
2020-07-31 17:26:31.335,,,,7.0
2020-07-31 17:26:31.339,,,,7.0
2020-07-31 17:26:31.343,,,,7.0
2020-07-31 17:26:31.347,,,,7.0
2020-07-31 17:26:31.351,,,,7.0
2020-07-31 17:26:31.355,,,,7.0
2020-07-31 17:26:31.359,,,,7.0
2020-07-31 17:26:31.363,,,,7.0
2020-07-31 17:26:31.367,,,,7.0
2020-07-31 17:26:31.371,,,,7.0
2020-07-31 17:26:31.375,,,,7.0
2020-07-31 17:26:31.378,,,,7.0
2020-07-31 17:26:31.382,,,,7.0
2020-07-31 17:26:31.386,,,,7.0
2020-07-31 17:26:31.390,,,,7.0
2020-07-31 17:26:31.394,,,,7.0
2020-07-31 17:26:31.398,,,,7.0
2020-07-31 17:26:31.402,,,,7.0
2020-07-31 17:26:31.406,,,,7.0
2020-07-31 17:26:31.410,,,,7.0
2020-07-31 17:26:31.414,,,,7.0
2020-07-31 17:26:31.417,,,,7.0
2020-07-31 17:26:31.421,,,,7.0
2020-07-31 17:26:31.425,,,,7.0
2020-07-31 17:26:31.429,,,,7.0
2020-07-31 17:26:31.433,,,,7.0
2020-07-31 17:26:31.437,,,,7.0
2020-07-31 17:26:31.441,,,,7.0
2020-07-31 17:26:31.445,,,,7.0
2020-07-31 17:26:31.449,,,,7.0
2020-07-31 17:26:31.453,,,,7.0
2020-07-31 17:26:31.457,,,,7.0
2020-07-31 17:26:31.460,,,,7.0
2020-07-31 17:26:31.464,,,,7.0
2020-07-31 17:26:31.468,,,,7.0
2020-07-31 17:26:31.472,,,,7.0
2020-07-31 17:26:31.476,,,,7.0
2020-07-31 17:26:31.480,,,,7.0
2020-07-31 17:26:31.484,,,,7.0
2020-07-31 17:26:31.488,,,,7.0
2020-07-31 17:26:31.492,,,,7.0
2020-07-31 17:26:31.496,,,,7.0
2020-07-31 17:26:31.500,,,,7.0
2020-07-31 17:26:31.503,,,,7.0
2020-07-31 17:26:31.507,,,,7.0
2020-07-31 17:26:31.511,,,,7.0
2020-07-31 17:26:31.515,,,,7.0
2020-07-31 17:26:31.519,,,,7.0
2020-07-31 17:26:31.523,,,,7.0
2020-07-31 17:26:31.527,,,,7.0
2020-07-31 17:26:31.531,,,,7.0
2020-07-31 17:26:31.535,,,,7.0
2020-07-31 17:26:31.539,,,,7.0
2020-07-31 17:26:31.542,,,,7.0
2020-07-31 17:26:31.546,,,,7.0
2020-07-31 17:26:31.550,,,,7.0
2020-07-31 17:26:31.554,,,,7.0
2020-07-31 17:26:31.558,,,,7.0
2020-07-31 17:26:31.562,,,,7.0
2020-07-31 17:26:31.566,,,,7.0
2020-07-31 17:26:31.570,,,,7.0
2020-07-31 17:26:31.574,,,,7.0
2020-07-31 17:26:31.578,,,,7.0
2020-07-31 17:26:31.582,,,,7.0
2020-07-31 17:26:31.585,,,,7.0
2020-07-31 17:26:31.589,,,,7.0
2020-07-31 17:26:31.593,,,,7.0
2020-07-31 17:26:31.597,,,,7.0
2020-07-31 17:26:31.601,,,,7.0
2020-07-31 17:26:31.605,,,,7.0
2020-07-31 17:26:31.609,,,,7.0
2020-07-31 17:26:31.613,,,,7.0
2020-07-31 17:26:31.617,,,,7.0
2020-07-31 17:26:31.621,,,,7.0
2020-07-31 17:26:31.625,,,,7.0
2020-07-31 17:26:31.628,,,,7.0
2020-07-31 17:26:31.632,,,,7.0
2020-07-31 17:26:31.636,,,,7.0
2020-07-31 17:26:31.640,,,,7.0
2020-07-31 17:26:31.644,,,,7.0
2020-07-31 17:26:31.648,,,,7.0
2020-07-31 17:26:31.652,,,,7.0
2020-07-31 17:26:31.656,,,,7.0
2020-07-31 17:26:31.660,,,,7.0
2020-07-31 17:26:31.664,,,,7.0
2020-07-31 17:26:31.667,,,,7.0
2020-07-31 17:26:31.671,,,,7.0
2020-07-31 17:26:31.675,,,,7.0
2020-07-31 17:26:31.679,,,,7.0
2020-07-31 17:26:31.683,,,,7.0
2020-07-31 17:26:31.687,,,,7.0
2020-07-31 17:26:31.691,,,,7.0
2020-07-31 17:26:31.695,,,,7.0
2020-07-31 17:26:31.699,,,,7.0
2020-07-31 17:26:31.703,,,,7.0
2020-07-31 17:26:31.707,,,,7.0
2020-07-31 17:26:31.710,,,,7.0
2020-07-31 17:26:31.714,,,,7.0
2020-07-31 17:26:31.718,,,,7.0
2020-07-31 17:26:31.722,,,,7.0
2020-07-31 17:26:31.726,,,,7.0
2020-07-31 17:26:31.730,,,,7.0
2020-07-31 17:26:31.734,,,,7.0
2020-07-31 17:26:31.738,,,,7.0
2020-07-31 17:26:31.742,,,,7.0
2020-07-31 17:26:31.746,,,,7.0
2020-07-31 17:26:31.750,,,,7.0
2020-07-31 17:26:31.753,,,,7.0
2020-07-31 17:26:31.757,,,,7.0
2020-07-31 17:26:31.761,,,,7.0
2020-07-31 17:26:31.765,,,,7.0
2020-07-31 17:26:31.769,,,,7.0
2020-07-31 17:26:31.773,,,,7.0
2020-07-31 17:26:31.777,,,,7.0
2020-07-31 17:26:31.781,,,,7.0
2020-07-31 17:26:31.785,,,,7.0
2020-07-31 17:26:31.789,,,,7.0
2020-07-31 17:26:31.792,,,,7.0
2020-07-31 17:26:31.796,,,,7.0
2020-07-31 17:26:31.800,,,,7.0
2020-07-31 17:26:31.804,,,,7.0
2020-07-31 17:26:31.808,,,,7.0
2020-07-31 17:26:31.812,,,,7.0
2020-07-31 17:26:31.816,,,,7.0
2020-07-31 17:26:31.820,,,,7.0
2020-07-31 17:26:31.824,,,,7.0
2020-07-31 17:26:31.828,,,,7.0
2020-07-31 17:26:31.832,,,,7.0
2020-07-31 17:26:31.835,,,,7.0
2020-07-31 17:26:31.839,,,,7.0
2020-07-31 17:26:31.843,,,,7.0
2020-07-31 17:26:31.847,,,,7.0
2020-07-31 17:26:31.851,,,,7.0
2020-07-31 17:26:31.855,,,,7.0
2020-07-31 17:26:31.859,,,,7.0
2020-07-31 17:26:31.863,,,,7.0
2020-07-31 17:26:31.867,,,,7.0
2020-07-31 17:26:31.871,,,,7.0
2020-07-31 17:26:31.875,,,,7.0
2020-07-31 17:26:31.878,,,,7.0
2020-07-31 17:26:31.882,,,,7.0
2020-07-31 17:26:31.886,,,,7.0
2020-07-31 17:26:31.890,,,,7.0
2020-07-31 17:26:31.894,,,,7.0
2020-07-31 17:26:31.898,,,,7.0
2020-07-31 17:26:31.902,,,,7.0
2020-07-31 17:26:31.906,,,,7.0
2020-07-31 17:26:31.910,,,,7.0
2020-07-31 17:26:31.914,,,,7.0
2020-07-31 17:26:31.917,,,,7.0
2020-07-31 17:26:31.921,,,,7.0
2020-07-31 17:26:31.925,,,,7.0
2020-07-31 17:26:31.929,,,,7.0
2020-07-31 17:26:31.933,,,,7.0
2020-07-31 17:26:31.937,,,,7.0
2020-07-31 17:26:31.941,,,,7.0
2020-07-31 17:26:31.945,,,,7.0
2020-07-31 17:26:31.949,,,,7.0
2020-07-31 17:26:31.953,,,,7.0
2020-07-31 17:26:31.957,,,,7.0
2020-07-31 17:26:31.960,,,,7.0
2020-07-31 17:26:31.964,,,,7.0
2020-07-31 17:26:31.968,,,,7.0
2020-07-31 17:26:31.972,,,,7.0
2020-07-31 17:26:31.976,,,,7.0
2020-07-31 17:26:31.980,,,,7.0
2020-07-31 17:26:31.984,,,,7.0
2020-07-31 17:26:31.988,,,,7.0
2020-07-31 17:26:31.992,,,,7.0
2020-07-31 17:26:31.996,,,,7.0
2020-07-31 17:26:32.000,,,,7.0
2020-07-31 17:26:32.003,,,,7.0
2020-07-31 17:26:32.007,,,,7.0
2020-07-31 17:26:32.011,,,,7.0
2020-07-31 17:26:32.015,,,,7.0
2020-07-31 17:26:32.019,,,,7.0
2020-07-31 17:26:32.023,,,,7.0
2020-07-31 17:26:32.027,,,,7.0
2020-07-31 17:26:32.031,,,,7.0
2020-07-31 17:26:32.035,,,,7.0
2020-07-31 17:26:32.039,,,,7.0
2020-07-31 17:26:32.042,,,,7.0
2020-07-31 17:26:32.046,,,,7.0
2020-07-31 17:26:32.050,,,,7.0
2020-07-31 17:26:32.054,,,,7.0
2020-07-31 17:26:32.058,,,,7.0
2020-07-31 17:26:32.062,,,,7.0
2020-07-31 17:26:32.066,,,,7.0
2020-07-31 17:26:32.070,,,,7.0
2020-07-31 17:26:32.074,,,,7.0
2020-07-31 17:26:32.078,,,,7.0
2020-07-31 17:26:32.082,,,,7.0
2020-07-31 17:26:32.085,,,,7.0
2020-07-31 17:26:32.089,,,,7.0
2020-07-31 17:26:32.093,,,,7.0
2020-07-31 17:26:32.097,,,,7.0
2020-07-31 17:26:32.101,,,,7.0
2020-07-31 17:26:32.105,,,,7.0
2020-07-31 17:26:32.109,,,,7.0
2020-07-31 17:26:32.113,,,,7.0
2020-07-31 17:26:32.117,,,,7.0
2020-07-31 17:26:32.121,,,,7.0
2020-07-31 17:26:32.125,,,,7.0
2020-07-31 17:26:32.128,,,,7.0
2020-07-31 17:26:32.132,,,,7.0
2020-07-31 17:26:32.136,,,,7.0
2020-07-31 17:26:32.140,,,,7.0
2020-07-31 17:26:32.144,,,,7.0
2020-07-31 17:26:32.148,,,,7.0
2020-07-31 17:26:32.152,,,,7.0
2020-07-31 17:26:32.156,,,,7.0
2020-07-31 17:26:32.160,,,,7.0
2020-07-31 17:26:32.164,,,,7.0
2020-07-31 17:26:32.167,,,,7.0
2020-07-31 17:26:32.171,,,,7.0
2020-07-31 17:26:32.175,,,,7.0
2020-07-31 17:26:32.179,,,,7.0
2020-07-31 17:26:32.183,,,,7.0
2020-07-31 17:26:32.187,,,,7.0
2020-07-31 17:26:32.191,,,,7.0
2020-07-31 17:26:32.195,,,,7.0
2020-07-31 17:26:32.199,,,,7.0
2020-07-31 17:26:32.203,,,,7.0
2020-07-31 17:26:32.207,,,,7.0
2020-07-31 17:26:32.210,,,,7.0
2020-07-31 17:26:32.214,,,,7.0
2020-07-31 17:26:32.218,,,,7.0
2020-07-31 17:26:32.222,,,,7.0
2020-07-31 17:26:32.226,,,,7.0
2020-07-31 17:26:32.230,,,,7.0
2020-07-31 17:26:32.234,,,,7.0
2020-07-31 17:26:32.238,,,,7.0
2020-07-31 17:26:32.242,,,,7.0
2020-07-31 17:26:32.246,,,,7.0
2020-07-31 17:26:32.250,,,,7.0
2020-07-31 17:26:32.253,,,,7.0
2020-07-31 17:26:32.257,,,,7.0
2020-07-31 17:26:32.261,,,,7.0
2020-07-31 17:26:32.265,,,,7.0
2020-07-31 17:26:32.269,,,,7.0
2020-07-31 17:26:32.273,,,,7.0
2020-07-31 17:26:32.277,,,,7.0
2020-07-31 17:26:32.281,,,,7.0
2020-07-31 17:26:32.285,,,,7.0
2020-07-31 17:26:32.289,,,,7.0
2020-07-31 17:26:32.292,,,,7.0
2020-07-31 17:26:32.296,,,,7.0
2020-07-31 17:26:32.300,,,,7.0
2020-07-31 17:26:32.304,,,,7.0
2020-07-31 17:26:32.308,,,,7.0
2020-07-31 17:26:32.312,,,,7.0
2020-07-31 17:26:32.316,,,,7.0
2020-07-31 17:26:32.320,,,,7.0
2020-07-31 17:26:32.324,,,,7.0
2020-07-31 17:26:32.328,,,,7.0
2020-07-31 17:26:32.332,,,,7.0
2020-07-31 17:26:32.335,,,,7.0
2020-07-31 17:26:32.339,,,,7.0
2020-07-31 17:26:32.343,,,,7.0
2020-07-31 17:26:32.347,,,,7.0
2020-07-31 17:26:32.351,,,,7.0
2020-07-31 17:26:32.355,,,,7.0
2020-07-31 17:26:32.359,,,,7.0
2020-07-31 17:26:32.363,,,,7.0
2020-07-31 17:26:32.367,,,,7.0
2020-07-31 17:26:32.371,,,,7.0
2020-07-31 17:26:32.375,,,,7.0
2020-07-31 17:26:32.378,,,,7.0
2020-07-31 17:26:32.382,,,,7.0
2020-07-31 17:26:32.386,,,,7.0
2020-07-31 17:26:32.390,,,,7.0
2020-07-31 17:26:32.394,,,,7.0
2020-07-31 17:26:32.398,,,,7.0
2020-07-31 17:26:32.402,,,,7.0
2020-07-31 17:26:32.406,,,,7.0
2020-07-31 17:26:32.410,,,,7.0
2020-07-31 17:26:32.414,,,,7.0
2020-07-31 17:26:32.417,,,,7.0
2020-07-31 17:26:32.421,,,,7.0
2020-07-31 17:26:32.425,,,,7.0
2020-07-31 17:26:32.429,,,,7.0
2020-07-31 17:26:32.433,,,,7.0
2020-07-31 17:26:32.437,,,,7.0
2020-07-31 17:26:32.441,,,,7.0
2020-07-31 17:26:32.445,,,,7.0
2020-07-31 17:26:32.449,,,,7.0
2020-07-31 17:26:32.453,,,,7.0
2020-07-31 17:26:32.457,,,,7.0
2020-07-31 17:26:32.460,,,,7.0
2020-07-31 17:26:32.464,,,,7.0
2020-07-31 17:26:32.468,,,,7.0
2020-07-31 17:26:32.472,,,,7.0
2020-07-31 17:26:32.476,,,,7.0
2020-07-31 17:26:32.480,,,,7.0
2020-07-31 17:26:32.484,,,,7.0
2020-07-31 17:26:32.488,,,,7.0
2020-07-31 17:26:32.492,,,,7.0
2020-07-31 17:26:32.496,,,,7.0
2020-07-31 17:26:32.500,,,,7.0
2020-07-31 17:26:32.503,,,,7.0
2020-07-31 17:26:32.507,,,,7.0
2020-07-31 17:26:32.511,,,,7.0
2020-07-31 17:26:32.515,,,,7.0
2020-07-31 17:26:32.519,,,,7.0
2020-07-31 17:26:32.523,,,,7.0
2020-07-31 17:26:32.527,,,,7.0
2020-07-31 17:26:32.531,,,,7.0
2020-07-31 17:26:32.535,,,,7.0
2020-07-31 17:26:32.539,,,,7.0
2020-07-31 17:26:32.542,,,,7.0
2020-07-31 17:26:32.546,,,,7.0
2020-07-31 17:26:32.550,,,,7.0
2020-07-31 17:26:32.554,,,,7.0
2020-07-31 17:26:32.558,,,,7.0
2020-07-31 17:26:32.562,,,,7.0
2020-07-31 17:26:32.566,,,,7.0
2020-07-31 17:26:32.570,,,,7.0
2020-07-31 17:26:32.574,,,,7.0
2020-07-31 17:26:32.578,,,,7.0
2020-07-31 17:26:32.582,,,,7.0
2020-07-31 17:26:32.585,,,,7.0
2020-07-31 17:26:32.589,,,,7.0
2020-07-31 17:26:32.593,,,,7.0
2020-07-31 17:26:32.597,,,,7.0
2020-07-31 17:26:32.601,,,,7.0
2020-07-31 17:26:32.605,,,,7.0
2020-07-31 17:26:32.609,,,,7.0
2020-07-31 17:26:32.613,,,,7.0
2020-07-31 17:26:32.617,,,,7.0
2020-07-31 17:26:32.621,,,,7.0
2020-07-31 17:26:32.625,,,,7.0
2020-07-31 17:26:32.628,,,,7.0
2020-07-31 17:26:32.632,,,,7.0
2020-07-31 17:26:32.636,,,,7.0
2020-07-31 17:26:32.640,,,,7.0
2020-07-31 17:26:32.644,,,,7.0
2020-07-31 17:26:32.648,,,,7.0
2020-07-31 17:26:32.652,,,,7.0
2020-07-31 17:26:32.656,,,,7.0
2020-07-31 17:26:32.660,,,,7.0
2020-07-31 17:26:32.664,,,,7.0
2020-07-31 17:26:32.667,,,,7.0
2020-07-31 17:26:32.671,,,,7.0
2020-07-31 17:26:32.675,,,,7.0
2020-07-31 17:26:32.679,,,,7.0
2020-07-31 17:26:32.683,,,,7.0
2020-07-31 17:26:32.687,,,,7.0
2020-07-31 17:26:32.691,,,,7.0
2020-07-31 17:26:32.695,,,,7.0
2020-07-31 17:26:32.699,,,,7.0
2020-07-31 17:26:32.703,,,,7.0
2020-07-31 17:26:32.707,,,,7.0
2020-07-31 17:26:32.710,,,,7.0
2020-07-31 17:26:32.714,,,,7.0
2020-07-31 17:26:32.718,,,,7.0
2020-07-31 17:26:32.722,,,,7.0
2020-07-31 17:26:32.726,,,,7.0
2020-07-31 17:26:32.730,,,,7.0
2020-07-31 17:26:32.734,,,,7.0
2020-07-31 17:26:32.738,,,,7.0
2020-07-31 17:26:32.742,,,,7.0
2020-07-31 17:26:32.746,,,,7.0
2020-07-31 17:26:32.750,,,,7.0
2020-07-31 17:26:32.753,,,,7.0
2020-07-31 17:26:32.757,,,,7.0
2020-07-31 17:26:32.761,,,,7.0
2020-07-31 17:26:32.765,,,,7.0
2020-07-31 17:26:32.769,,,,7.0
2020-07-31 17:26:32.773,,,,7.0
2020-07-31 17:26:32.777,,,,7.0
2020-07-31 17:26:32.781,,,,7.0
2020-07-31 17:26:32.785,,,,7.0
2020-07-31 17:26:32.789,,,,7.0
2020-07-31 17:26:32.792,,,,7.0
2020-07-31 17:26:32.796,,,,7.0
2020-07-31 17:26:32.800,,,,7.0
2020-07-31 17:26:32.804,,,,7.0
2020-07-31 17:26:32.808,,,,7.0
2020-07-31 17:26:32.812,,,,7.0
2020-07-31 17:26:32.816,,,,7.0
2020-07-31 17:26:32.820,,,,7.0
2020-07-31 17:26:32.824,,,,7.0
2020-07-31 17:26:32.828,,,,7.0
2020-07-31 17:26:32.832,,,,7.0
2020-07-31 17:26:32.835,,,,7.0
2020-07-31 17:26:32.839,,,,7.0
2020-07-31 17:26:32.843,,,,7.0
2020-07-31 17:26:32.847,,,,7.0
2020-07-31 17:26:32.851,,,,7.0
2020-07-31 17:26:32.855,,,,7.0
2020-07-31 17:26:32.859,,,,7.0
2020-07-31 17:26:32.863,,,,7.0
2020-07-31 17:26:32.867,,,,7.0
2020-07-31 17:26:32.871,,,,7.0
2020-07-31 17:26:32.875,,,,7.0
2020-07-31 17:26:32.878,,,,7.0
2020-07-31 17:26:32.882,,,,7.0
2020-07-31 17:26:32.886,,,,7.0
2020-07-31 17:26:32.890,,,,7.0
2020-07-31 17:26:32.894,,,,7.0
2020-07-31 17:26:32.898,,,,7.0
2020-07-31 17:26:32.902,,,,7.0
2020-07-31 17:26:32.906,,,,7.0
2020-07-31 17:26:32.910,,,,7.0
2020-07-31 17:26:32.914,,,,7.0
2020-07-31 17:26:32.917,,,,7.0
2020-07-31 17:26:32.921,,,,7.0
2020-07-31 17:26:32.925,,,,7.0
2020-07-31 17:26:32.929,,,,7.0
2020-07-31 17:26:32.933,,,,7.0
2020-07-31 17:26:32.937,,,,7.0
2020-07-31 17:26:32.941,,,,7.0
2020-07-31 17:26:32.945,,,,7.0
2020-07-31 17:26:32.949,,,,7.0
2020-07-31 17:26:32.953,,,,7.0
2020-07-31 17:26:32.957,,,,7.0
2020-07-31 17:26:32.960,,,,7.0
2020-07-31 17:26:32.964,,,,7.0
2020-07-31 17:26:32.968,,,,7.0
2020-07-31 17:26:32.972,,,,7.0
2020-07-31 17:26:32.976,,,,7.0
2020-07-31 17:26:32.980,,,,7.0
2020-07-31 17:26:32.984,,,,7.0
2020-07-31 17:26:32.988,,,,7.0
2020-07-31 17:26:32.992,,,,7.0
2020-07-31 17:26:32.996,,,,7.0
2020-07-31 17:26:33.000,,,,7.0
2020-07-31 17:26:33.003,,,,7.0
2020-07-31 17:26:33.007,,,,7.0
2020-07-31 17:26:33.011,,,,7.0
2020-07-31 17:26:33.015,,,,7.0
2020-07-31 17:26:33.019,,,,7.0
2020-07-31 17:26:33.023,,,,7.0
2020-07-31 17:26:33.027,,,,7.0
2020-07-31 17:26:33.031,,,,7.0
2020-07-31 17:26:33.035,,,,7.0
2020-07-31 17:26:33.039,,,,7.0
2020-07-31 17:26:33.042,,,,7.0
2020-07-31 17:26:33.046,,,,7.0
2020-07-31 17:26:33.050,,,,7.0
2020-07-31 17:26:33.054,,,,7.0
2020-07-31 17:26:33.058,,,,7.0
2020-07-31 17:26:33.062,,,,7.0
2020-07-31 17:26:33.066,,,,7.0
2020-07-31 17:26:33.070,,,,7.0
2020-07-31 17:26:33.074,,,,7.0
2020-07-31 17:26:33.078,,,,7.0
2020-07-31 17:26:33.082,,,,7.0
2020-07-31 17:26:33.085,,,,7.0
2020-07-31 17:26:33.089,,,,7.0
2020-07-31 17:26:33.093,,,,7.0
2020-07-31 17:26:33.097,,,,7.0
2020-07-31 17:26:33.101,,,,7.0
2020-07-31 17:26:33.105,,,,7.0
2020-07-31 17:26:33.109,,,,7.0
2020-07-31 17:26:33.113,,,,7.0
2020-07-31 17:26:33.117,,,,7.0
2020-07-31 17:26:33.121,,,,7.0
2020-07-31 17:26:33.125,,,,7.0
2020-07-31 17:26:33.128,,,,7.0
2020-07-31 17:26:33.132,,,,7.0
2020-07-31 17:26:33.136,,,,7.0
2020-07-31 17:26:33.140,,,,7.0
2020-07-31 17:26:33.144,,,,7.0
2020-07-31 17:26:33.148,,,,7.0
2020-07-31 17:26:33.152,,,,7.0
2020-07-31 17:26:33.156,,,,7.0
2020-07-31 17:26:33.160,,,,7.0
2020-07-31 17:26:33.164,,,,7.0
2020-07-31 17:26:33.167,,,,7.0
2020-07-31 17:26:33.171,,,,7.0
2020-07-31 17:26:33.175,,,,7.0
2020-07-31 17:26:33.179,,,,7.0
2020-07-31 17:26:33.183,,,,7.0
2020-07-31 17:26:33.187,,,,7.0
2020-07-31 17:26:33.191,,,,7.0
2020-07-31 17:26:33.195,,,,7.0
2020-07-31 17:26:33.199,,,,7.0
2020-07-31 17:26:33.203,,,,7.0
2020-07-31 17:26:33.207,,,,7.0
2020-07-31 17:26:33.210,,,,7.0
2020-07-31 17:26:33.214,,,,7.0
2020-07-31 17:26:33.218,,,,7.0
2020-07-31 17:26:33.222,,,,7.0
2020-07-31 17:26:33.226,,,,7.0
2020-07-31 17:26:33.230,,,,7.0
2020-07-31 17:26:33.234,,,,7.0
2020-07-31 17:26:33.238,,,,7.0
2020-07-31 17:26:33.242,,,,7.0
2020-07-31 17:26:33.246,,,,7.0
2020-07-31 17:26:33.250,,,,7.0
2020-07-31 17:26:33.253,,,,7.0
2020-07-31 17:26:33.257,,,,7.0
2020-07-31 17:26:33.261,,,,7.0
2020-07-31 17:26:33.265,,,,7.0
2020-07-31 17:26:33.269,,,,7.0
2020-07-31 17:26:33.273,,,,7.0
2020-07-31 17:26:33.277,,,,7.0
2020-07-31 17:26:33.281,,,,7.0
2020-07-31 17:26:33.285,,,,7.0
2020-07-31 17:26:33.289,,,,7.0
2020-07-31 17:26:33.292,,,,7.0
2020-07-31 17:26:33.296,,,,7.0
2020-07-31 17:26:33.300,,,,7.0
2020-07-31 17:26:33.304,,,,7.0
2020-07-31 17:26:33.308,,,,7.0
2020-07-31 17:26:33.312,,,,7.0
2020-07-31 17:26:33.316,,,,7.0
2020-07-31 17:26:33.320,,,,7.0
2020-07-31 17:26:33.324,,,,7.0
2020-07-31 17:26:33.328,,,,7.0
2020-07-31 17:26:33.332,,,,7.0
2020-07-31 17:26:33.335,,,,7.0
2020-07-31 17:26:33.339,,,,7.0
2020-07-31 17:26:33.343,,,,7.0
2020-07-31 17:26:33.347,,,,7.0
2020-07-31 17:26:33.351,,,,7.0
2020-07-31 17:26:33.355,,,,7.0
2020-07-31 17:26:33.359,,,,7.0
2020-07-31 17:26:33.363,,,,7.0
2020-07-31 17:26:33.367,,,,7.0
2020-07-31 17:26:33.371,,,,7.0
2020-07-31 17:26:33.375,,,,7.0
2020-07-31 17:26:33.378,,,,7.0
2020-07-31 17:26:33.382,,,,7.0
2020-07-31 17:26:33.386,,,,7.0
2020-07-31 17:26:33.390,,,,7.0
2020-07-31 17:26:33.394,,,,7.0
2020-07-31 17:26:33.398,,,,7.0
2020-07-31 17:26:33.402,,,,7.0
2020-07-31 17:26:33.406,,,,7.0
2020-07-31 17:26:33.410,,,,7.0
2020-07-31 17:26:33.414,,,,7.0
2020-07-31 17:26:33.417,,,,7.0
2020-07-31 17:26:33.421,,,,7.0
2020-07-31 17:26:33.425,,,,7.0
2020-07-31 17:26:33.429,,,,7.0
2020-07-31 17:26:33.433,,,,7.0
2020-07-31 17:26:33.437,,,,7.0
2020-07-31 17:26:33.441,,,,7.0
2020-07-31 17:26:33.445,,,,7.0
2020-07-31 17:26:33.449,,,,7.0
2020-07-31 17:26:33.453,,,,7.0
2020-07-31 17:26:33.457,,,,7.0
2020-07-31 17:26:33.460,,,,7.0
2020-07-31 17:26:33.464,,,,7.0
2020-07-31 17:26:33.468,,,,7.0
2020-07-31 17:26:33.472,,,,7.0
2020-07-31 17:26:33.476,,,,7.0
2020-07-31 17:26:33.480,,,,7.0
2020-07-31 17:26:33.484,,,,7.0
2020-07-31 17:26:33.488,,,,7.0
2020-07-31 17:26:33.492,,,,7.0
2020-07-31 17:26:33.496,,,,7.0
2020-07-31 17:26:33.500,,,,7.0
2020-07-31 17:26:33.503,,,,7.0
2020-07-31 17:26:33.507,,,,7.0
2020-07-31 17:26:33.511,,,,7.0
2020-07-31 17:26:33.515,,,,7.0
2020-07-31 17:26:33.519,,,,7.0
2020-07-31 17:26:33.523,,,,7.0
2020-07-31 17:26:33.527,,,,7.0
2020-07-31 17:26:33.531,,,,7.0
2020-07-31 17:26:33.535,,,,7.0
2020-07-31 17:26:33.539,,,,7.0
2020-07-31 17:26:33.542,,,,7.0
2020-07-31 17:26:33.546,,,,7.0
2020-07-31 17:26:33.550,,,,7.0
2020-07-31 17:26:33.554,,,,7.0
2020-07-31 17:26:33.558,,,,7.0
2020-07-31 17:26:33.562,,,,7.0
2020-07-31 17:26:33.566,,,,7.0
2020-07-31 17:26:33.570,,,,7.0
2020-07-31 17:26:33.574,,,,7.0
2020-07-31 17:26:33.578,,,,7.0
2020-07-31 17:26:33.582,,,,7.0
2020-07-31 17:26:33.585,,,,7.0
2020-07-31 17:26:33.589,,,,7.0
2020-07-31 17:26:33.593,,,,7.0
2020-07-31 17:26:33.597,,,,7.0
2020-07-31 17:26:33.601,,,,7.0
2020-07-31 17:26:33.605,,,,7.0
2020-07-31 17:26:33.609,,,,7.0
2020-07-31 17:26:33.613,,,,7.0
2020-07-31 17:26:33.617,,,,7.0
2020-07-31 17:26:33.621,,,,7.0
2020-07-31 17:26:33.625,,,,7.0
2020-07-31 17:26:33.628,,,,7.0
2020-07-31 17:26:33.632,,,,7.0
2020-07-31 17:26:33.636,,,,7.0
2020-07-31 17:26:33.640,,,,7.0
2020-07-31 17:26:33.644,,,,7.0
2020-07-31 17:26:33.648,,,,7.0
2020-07-31 17:26:33.652,,,,7.0
2020-07-31 17:26:33.656,,,,7.0
2020-07-31 17:26:33.660,,,,7.0
2020-07-31 17:26:33.664,,,,7.0
2020-07-31 17:26:33.667,,,,7.0
2020-07-31 17:26:33.671,,,,7.0
2020-07-31 17:26:33.675,,,,7.0
2020-07-31 17:26:33.679,,,,7.0
2020-07-31 17:26:33.683,,,,7.0
2020-07-31 17:26:33.687,,,,7.0
2020-07-31 17:26:33.691,,,,7.0
2020-07-31 17:26:33.695,,,,7.0
2020-07-31 17:26:33.699,,,,7.0
2020-07-31 17:26:33.703,,,,7.0
2020-07-31 17:26:33.707,,,,7.0
2020-07-31 17:26:33.710,,,,7.0
2020-07-31 17:26:33.714,,,,7.0
2020-07-31 17:26:33.718,,,,7.0
2020-07-31 17:26:33.722,,,,7.0
2020-07-31 17:26:33.726,,,,7.0
2020-07-31 17:26:33.730,,,,7.0
2020-07-31 17:26:33.734,,,,7.0
2020-07-31 17:26:33.738,,,,7.0
2020-07-31 17:26:33.742,,,,7.0
2020-07-31 17:26:33.746,,,,7.0
2020-07-31 17:26:33.750,,,,7.0
2020-07-31 17:26:33.753,,,,7.0
2020-07-31 17:26:33.757,,,,7.0
2020-07-31 17:26:33.761,,,,7.0
2020-07-31 17:26:33.765,,,,7.0
2020-07-31 17:26:33.769,,,,7.0
2020-07-31 17:26:33.773,,,,7.0
2020-07-31 17:26:33.777,,,,7.0
2020-07-31 17:26:33.781,,,,7.0
2020-07-31 17:26:33.785,,,,7.0
2020-07-31 17:26:33.789,,,,7.0
2020-07-31 17:26:33.792,,,,7.0
2020-07-31 17:26:33.796,,,,7.0
2020-07-31 17:26:33.800,,,,7.0
2020-07-31 17:26:33.804,,,,7.0
2020-07-31 17:26:33.808,,,,7.0
2020-07-31 17:26:33.812,,,,7.0
2020-07-31 17:26:33.816,,,,7.0
2020-07-31 17:26:33.820,,,,7.0
2020-07-31 17:26:33.824,,,,7.0
2020-07-31 17:26:33.828,,,,7.0
2020-07-31 17:26:33.832,,,,7.0
2020-07-31 17:26:33.835,,,,7.0
2020-07-31 17:26:33.839,,,,7.0
2020-07-31 17:26:33.843,,,,7.0
2020-07-31 17:26:33.847,,,,7.0
2020-07-31 17:26:33.851,,,,7.0
2020-07-31 17:26:33.855,,,,7.0
2020-07-31 17:26:33.859,,,,7.0
2020-07-31 17:26:33.863,,,,7.0
2020-07-31 17:26:33.867,,,,7.0
2020-07-31 17:26:33.871,,,,7.0
2020-07-31 17:26:33.875,,,,7.0
2020-07-31 17:26:33.878,,,,7.0
2020-07-31 17:26:33.882,,,,7.0
2020-07-31 17:26:33.886,,,,7.0
2020-07-31 17:26:33.890,,,,7.0
2020-07-31 17:26:33.894,,,,7.0
2020-07-31 17:26:33.898,,,,7.0
2020-07-31 17:26:33.902,,,,7.0
2020-07-31 17:26:33.906,,,,7.0
2020-07-31 17:26:33.910,,,,7.0
2020-07-31 17:26:33.914,,,,7.0
2020-07-31 17:26:33.917,,,,7.0
2020-07-31 17:26:33.921,,,,7.0
2020-07-31 17:26:33.925,,,,7.0
2020-07-31 17:26:33.929,,,,7.0
2020-07-31 17:26:33.933,,,,7.0
2020-07-31 17:26:33.937,,,,7.0
2020-07-31 17:26:33.941,,,,7.0
2020-07-31 17:26:33.945,,,,7.0
2020-07-31 17:26:33.949,,,,7.0
2020-07-31 17:26:33.953,,,,7.0
2020-07-31 17:26:33.957,,,,7.0
2020-07-31 17:26:33.960,,,,7.0
2020-07-31 17:26:33.964,,,,7.0
2020-07-31 17:26:33.968,,,,7.0
2020-07-31 17:26:33.972,,,,7.0
2020-07-31 17:26:33.976,,,,7.0
2020-07-31 17:26:33.980,,,,7.0
2020-07-31 17:26:33.984,,,,7.0
2020-07-31 17:26:33.988,,,,7.0
2020-07-31 17:26:33.992,,,,7.0
2020-07-31 17:26:33.996,,,,7.0
2020-07-31 17:26:34.000,,,,7.0
2020-07-31 17:26:34.003,,,,7.0
2020-07-31 17:26:34.007,,,,7.0
2020-07-31 17:26:34.011,,,,7.0
2020-07-31 17:26:34.015,,,,7.0
2020-07-31 17:26:34.019,,,,7.0
2020-07-31 17:26:34.023,,,,7.0
2020-07-31 17:26:34.027,,,,7.0
2020-07-31 17:26:34.031,,,,7.0
2020-07-31 17:26:34.035,,,,7.0
2020-07-31 17:26:34.039,,,,7.0
2020-07-31 17:26:34.042,,,,7.0
2020-07-31 17:26:34.046,,,,7.0
2020-07-31 17:26:34.050,,,,7.0
2020-07-31 17:26:34.054,,,,7.0
2020-07-31 17:26:34.058,,,,7.0
2020-07-31 17:26:34.062,,,,7.0
2020-07-31 17:26:34.066,,,,7.0
2020-07-31 17:26:34.070,,,,7.0
2020-07-31 17:26:34.074,,,,7.0
2020-07-31 17:26:34.078,,,,7.0
2020-07-31 17:26:34.082,,,,7.0
2020-07-31 17:26:34.085,,,,7.0
2020-07-31 17:26:34.089,,,,7.0
2020-07-31 17:26:34.093,,,,7.0
2020-07-31 17:26:34.097,,,,7.0
2020-07-31 17:26:34.101,,,,7.0
2020-07-31 17:26:34.105,,,,7.0
2020-07-31 17:26:34.109,,,,7.0
2020-07-31 17:26:34.113,,,,7.0
2020-07-31 17:26:34.117,,,,7.0
2020-07-31 17:26:34.121,,,,7.0
2020-07-31 17:26:34.125,,,,7.0
2020-07-31 17:26:34.128,,,,7.0
2020-07-31 17:26:34.132,,,,7.0
2020-07-31 17:26:34.136,,,,7.0
2020-07-31 17:26:34.140,,,,7.0
2020-07-31 17:26:34.144,,,,7.0
2020-07-31 17:26:34.148,,,,7.0
2020-07-31 17:26:34.152,,,,7.0
2020-07-31 17:26:34.156,,,,7.0
2020-07-31 17:26:34.160,,,,7.0
2020-07-31 17:26:34.164,,,,7.0
2020-07-31 17:26:34.167,,,,7.0
2020-07-31 17:26:34.171,,,,7.0
2020-07-31 17:26:34.175,,,,7.0
2020-07-31 17:26:34.179,,,,7.0
2020-07-31 17:26:34.183,,,,7.0
2020-07-31 17:26:34.187,,,,7.0
2020-07-31 17:26:34.191,,,,7.0
2020-07-31 17:26:34.195,,,,7.0
2020-07-31 17:26:34.199,,,,7.0
2020-07-31 17:26:34.203,,,,7.0
2020-07-31 17:26:34.207,,,,7.0
2020-07-31 17:26:34.210,,,,7.0
2020-07-31 17:26:34.214,,,,7.0
2020-07-31 17:26:34.218,,,,7.0
2020-07-31 17:26:34.222,,,,7.0
2020-07-31 17:26:34.226,,,,7.0
2020-07-31 17:26:34.230,,,,7.0
2020-07-31 17:26:34.234,,,,7.0
2020-07-31 17:26:34.238,,,,7.0
2020-07-31 17:26:34.242,,,,7.0
2020-07-31 17:26:34.246,,,,7.0
2020-07-31 17:26:34.250,,,,7.0
2020-07-31 17:26:34.253,,,,7.0
2020-07-31 17:26:34.257,,,,7.0
2020-07-31 17:26:34.261,,,,7.0
2020-07-31 17:26:34.265,,,,7.0
2020-07-31 17:26:34.269,,,,7.0
2020-07-31 17:26:34.273,,,,7.0
2020-07-31 17:26:34.277,,,,7.0
2020-07-31 17:26:34.281,,,,7.0
2020-07-31 17:26:34.285,,,,7.0
2020-07-31 17:26:34.289,,,,7.0
2020-07-31 17:26:34.292,,,,7.0
2020-07-31 17:26:34.296,,,,7.0
2020-07-31 17:26:34.300,,,,7.0
2020-07-31 17:26:34.304,,,,7.0
2020-07-31 17:26:34.308,,,,7.0
2020-07-31 17:26:34.312,,,,7.0
2020-07-31 17:26:34.316,,,,7.0
2020-07-31 17:26:34.320,,,,7.0
2020-07-31 17:26:34.324,,,,7.0
2020-07-31 17:26:34.328,,,,7.0
2020-07-31 17:26:34.332,,,,7.0
2020-07-31 17:26:34.335,,,,7.0
2020-07-31 17:26:34.339,,,,7.0
2020-07-31 17:26:34.343,,,,7.0
2020-07-31 17:26:34.347,,,,7.0
2020-07-31 17:26:34.351,,,,7.0
2020-07-31 17:26:34.355,,,,7.0
2020-07-31 17:26:34.359,,,,7.0
2020-07-31 17:26:34.363,,,,7.0
2020-07-31 17:26:34.367,,,,7.0
2020-07-31 17:26:34.371,,,,7.0
2020-07-31 17:26:34.375,,,,7.0
2020-07-31 17:26:34.378,,,,7.0
2020-07-31 17:26:34.382,,,,7.0
2020-07-31 17:26:34.386,,,,7.0
2020-07-31 17:26:34.390,,,,7.0
2020-07-31 17:26:34.394,,,,7.0
2020-07-31 17:26:34.398,,,,7.0
2020-07-31 17:26:34.402,,,,7.0
2020-07-31 17:26:34.406,,,,7.0
2020-07-31 17:26:34.410,,,,7.0
2020-07-31 17:26:34.414,,,,7.0
2020-07-31 17:26:34.417,,,,7.0
2020-07-31 17:26:34.421,,,,7.0
2020-07-31 17:26:34.425,,,,7.0
2020-07-31 17:26:34.429,,,,7.0
2020-07-31 17:26:34.433,,,,7.0
2020-07-31 17:26:34.437,,,,7.0
2020-07-31 17:26:34.441,,,,7.0
2020-07-31 17:26:34.445,,,,7.0
2020-07-31 17:26:34.449,,,,7.0
2020-07-31 17:26:34.453,,,,7.0
2020-07-31 17:26:34.457,,,,7.0
2020-07-31 17:26:34.460,,,,7.0
2020-07-31 17:26:34.464,,,,7.0
2020-07-31 17:26:34.468,,,,7.0
2020-07-31 17:26:34.472,,,,7.0
2020-07-31 17:26:34.476,,,,7.0
2020-07-31 17:26:34.480,,,,7.0
2020-07-31 17:26:34.484,,,,7.0
2020-07-31 17:26:34.488,,,,7.0
2020-07-31 17:26:34.492,,,,7.0
2020-07-31 17:26:34.496,,,,7.0
2020-07-31 17:26:34.500,,,,7.0
2020-07-31 17:26:34.503,,,,7.0
2020-07-31 17:26:34.507,,,,7.0
2020-07-31 17:26:34.511,,,,7.0
2020-07-31 17:26:34.515,,,,7.0
2020-07-31 17:26:34.519,,,,7.0
2020-07-31 17:26:34.523,,,,7.0
2020-07-31 17:26:34.527,,,,7.0
2020-07-31 17:26:34.531,,,,7.0
2020-07-31 17:26:34.535,,,,7.0
2020-07-31 17:26:34.539,,,,7.0
2020-07-31 17:26:34.542,,,,7.0
2020-07-31 17:26:34.546,,,,7.0
2020-07-31 17:26:34.550,,,,7.0
2020-07-31 17:26:34.554,,,,7.0
2020-07-31 17:26:34.558,,,,7.0
2020-07-31 17:26:34.562,,,,7.0
2020-07-31 17:26:34.566,,,,7.0
2020-07-31 17:26:34.570,,,,7.0
2020-07-31 17:26:34.574,,,,7.0
2020-07-31 17:26:34.578,,,,7.0
2020-07-31 17:26:34.582,,,,7.0
2020-07-31 17:26:34.585,,,,7.0
2020-07-31 17:26:34.589,,,,7.0
2020-07-31 17:26:34.593,,,,7.0
2020-07-31 17:26:34.597,,,,7.0
2020-07-31 17:26:34.601,,,,7.0
2020-07-31 17:26:34.605,,,,7.0
2020-07-31 17:26:34.609,,,,7.0
2020-07-31 17:26:34.613,,,,7.0
2020-07-31 17:26:34.617,,,,7.0
2020-07-31 17:26:34.621,,,,7.0
2020-07-31 17:26:34.625,,,,7.0
2020-07-31 17:26:34.628,,,,7.0
2020-07-31 17:26:34.632,,,,7.0
2020-07-31 17:26:34.636,,,,7.0
2020-07-31 17:26:34.640,,,,7.0
2020-07-31 17:26:34.644,,,,7.0
2020-07-31 17:26:34.648,,,,7.0
2020-07-31 17:26:34.652,,,,7.0
2020-07-31 17:26:34.656,,,,7.0
2020-07-31 17:26:34.660,,,,7.0
2020-07-31 17:26:34.664,,,,7.0
2020-07-31 17:26:34.667,,,,7.0
2020-07-31 17:26:34.671,,,,7.0
2020-07-31 17:26:34.675,,,,7.0
2020-07-31 17:26:34.679,,,,7.0
2020-07-31 17:26:34.683,,,,7.0
2020-07-31 17:26:34.687,,,,7.0
2020-07-31 17:26:34.691,,,,7.0
2020-07-31 17:26:34.695,,,,7.0
2020-07-31 17:26:34.699,,,,7.0
2020-07-31 17:26:34.703,,,,7.0
2020-07-31 17:26:34.707,,,,7.0
2020-07-31 17:26:34.710,,,,7.0
2020-07-31 17:26:34.714,,,,7.0
2020-07-31 17:26:34.718,,,,7.0
2020-07-31 17:26:34.722,,,,7.0
2020-07-31 17:26:34.726,,,,7.0
2020-07-31 17:26:34.730,,,,7.0
2020-07-31 17:26:34.734,,,,7.0
2020-07-31 17:26:34.738,,,,7.0
2020-07-31 17:26:34.742,,,,7.0
2020-07-31 17:26:34.746,,,,7.0
2020-07-31 17:26:34.750,,,,7.0
2020-07-31 17:26:34.753,,,,7.0
2020-07-31 17:26:34.757,,,,7.0
2020-07-31 17:26:34.761,,,,7.0
2020-07-31 17:26:34.765,,,,7.0
2020-07-31 17:26:34.769,,,,7.0
2020-07-31 17:26:34.773,,,,7.0
2020-07-31 17:26:34.777,,,,7.0
2020-07-31 17:26:34.781,,,,7.0
2020-07-31 17:26:34.785,,,,7.0
2020-07-31 17:26:34.789,,,,7.0
2020-07-31 17:26:34.792,,,,7.0
2020-07-31 17:26:34.796,,,,7.0
2020-07-31 17:26:34.800,,,,7.0
2020-07-31 17:26:34.804,,,,7.0
2020-07-31 17:26:34.808,,,,7.0
2020-07-31 17:26:34.812,,,,7.0
2020-07-31 17:26:34.816,,,,7.0
2020-07-31 17:26:34.820,,,,7.0
2020-07-31 17:26:34.824,,,,7.0
2020-07-31 17:26:34.828,,,,7.0
2020-07-31 17:26:34.832,,,,7.0
2020-07-31 17:26:34.835,,,,7.0
2020-07-31 17:26:34.839,,,,7.0
2020-07-31 17:26:34.843,,,,7.0
2020-07-31 17:26:34.847,,,,7.0
2020-07-31 17:26:34.851,,,,7.0
2020-07-31 17:26:34.855,,,,7.0
2020-07-31 17:26:34.859,,,,7.0
2020-07-31 17:26:34.863,,,,7.0
2020-07-31 17:26:34.867,,,,7.0
2020-07-31 17:26:34.871,,,,7.0
2020-07-31 17:26:34.875,,,,7.0
2020-07-31 17:26:34.878,,,,7.0
2020-07-31 17:26:34.882,,,,7.0
2020-07-31 17:26:34.886,,,,7.0
2020-07-31 17:26:34.890,,,,7.0
2020-07-31 17:26:34.894,,,,7.0
2020-07-31 17:26:34.898,,,,7.0
2020-07-31 17:26:34.902,,,,7.0
2020-07-31 17:26:34.906,,,,7.0
2020-07-31 17:26:34.910,,,,7.0
2020-07-31 17:26:34.914,,,,7.0
2020-07-31 17:26:34.917,,,,7.0
2020-07-31 17:26:34.921,,,,7.0
2020-07-31 17:26:34.925,,,,7.0
2020-07-31 17:26:34.929,,,,7.0
2020-07-31 17:26:34.933,,,,7.0
2020-07-31 17:26:34.937,,,,7.0
2020-07-31 17:26:34.941,,,,7.0
2020-07-31 17:26:34.945,,,,7.0
2020-07-31 17:26:34.949,,,,7.0
2020-07-31 17:26:34.953,,,,7.0
2020-07-31 17:26:34.957,,,,7.0
2020-07-31 17:26:34.960,,,,7.0
2020-07-31 17:26:34.964,,,,7.0
2020-07-31 17:26:34.968,,,,7.0
2020-07-31 17:26:34.972,,,,7.0
2020-07-31 17:26:34.976,,,,7.0
2020-07-31 17:26:34.980,,,,7.0
2020-07-31 17:26:34.984,,,,7.0
2020-07-31 17:26:34.988,,,,7.0
2020-07-31 17:26:34.992,,,,7.0
2020-07-31 17:26:34.996,,,,7.0
2020-07-31 17:26:35.000,,,,7.0
2020-07-31 17:26:35.003,,,,7.0
2020-07-31 17:26:35.007,,,,7.0
2020-07-31 17:26:35.011,,,,7.0
2020-07-31 17:26:35.015,,,,7.0
2020-07-31 17:26:35.019,,,,7.0
2020-07-31 17:26:35.023,,,,7.0
2020-07-31 17:26:35.027,,,,7.0
2020-07-31 17:26:35.031,,,,7.0
2020-07-31 17:26:35.035,,,,7.0
2020-07-31 17:26:35.039,,,,7.0
2020-07-31 17:26:35.042,,,,7.0
2020-07-31 17:26:35.046,,,,7.0
2020-07-31 17:26:35.050,,,,7.0
2020-07-31 17:26:35.054,,,,7.0
2020-07-31 17:26:35.058,,,,7.0
2020-07-31 17:26:35.062,,,,7.0
2020-07-31 17:26:35.066,,,,7.0
2020-07-31 17:26:35.070,,,,7.0
2020-07-31 17:26:35.074,,,,7.0
2020-07-31 17:26:35.078,,,,7.0
2020-07-31 17:26:35.082,,,,7.0
2020-07-31 17:26:35.085,,,,7.0
2020-07-31 17:26:35.089,,,,7.0
2020-07-31 17:26:35.093,,,,7.0
2020-07-31 17:26:35.097,,,,7.0
2020-07-31 17:26:35.101,,,,7.0
2020-07-31 17:26:35.105,,,,7.0
2020-07-31 17:26:35.109,,,,7.0
2020-07-31 17:26:35.113,,,,7.0
2020-07-31 17:26:35.117,,,,7.0
2020-07-31 17:26:35.121,,,,7.0
2020-07-31 17:26:35.125,,,,7.0
2020-07-31 17:26:35.128,,,,7.0
2020-07-31 17:26:35.132,,,,7.0
2020-07-31 17:26:35.136,,,,7.0
2020-07-31 17:26:35.140,,,,7.0
2020-07-31 17:26:35.144,,,,7.0
2020-07-31 17:26:35.148,,,,7.0
2020-07-31 17:26:35.152,,,,7.0
2020-07-31 17:26:35.156,,,,7.0
2020-07-31 17:26:35.160,,,,7.0
2020-07-31 17:26:35.164,,,,7.0
2020-07-31 17:26:35.167,,,,7.0
2020-07-31 17:26:35.171,,,,7.0
2020-07-31 17:26:35.175,,,,7.0
2020-07-31 17:26:35.179,,,,7.0
2020-07-31 17:26:35.183,,,,7.0
2020-07-31 17:26:35.187,,,,7.0
2020-07-31 17:26:35.191,,,,7.0
2020-07-31 17:26:35.195,,,,7.0
2020-07-31 17:26:35.199,,,,7.0
2020-07-31 17:26:35.203,,,,7.0
2020-07-31 17:26:35.207,,,,7.0
2020-07-31 17:26:35.210,,,,7.0
2020-07-31 17:26:35.214,,,,7.0
2020-07-31 17:26:35.218,,,,7.0
2020-07-31 17:26:35.222,,,,7.0
2020-07-31 17:26:35.226,,,,7.0
2020-07-31 17:26:35.230,,,,7.0
2020-07-31 17:26:35.234,,,,7.0
2020-07-31 17:26:35.238,,,,7.0
2020-07-31 17:26:35.242,,,,7.0
2020-07-31 17:26:35.246,,,,7.0
2020-07-31 17:26:35.250,,,,7.0
2020-07-31 17:26:35.253,,,,7.0
2020-07-31 17:26:35.257,,,,7.0
2020-07-31 17:26:35.261,,,,7.0
2020-07-31 17:26:35.265,,,,7.0
2020-07-31 17:26:35.269,,,,7.0
2020-07-31 17:26:35.273,,,,7.0
2020-07-31 17:26:35.277,,,,7.0
2020-07-31 17:26:35.281,,,,7.0
2020-07-31 17:26:35.285,,,,7.0
2020-07-31 17:26:35.289,,,,7.0
2020-07-31 17:26:35.292,,,,7.0
2020-07-31 17:26:35.296,,,,7.0
2020-07-31 17:26:35.300,,,,7.0
2020-07-31 17:26:35.304,,,,7.0
2020-07-31 17:26:35.308,,,,7.0
2020-07-31 17:26:35.312,,,,7.0
2020-07-31 17:26:35.316,,,,7.0
2020-07-31 17:26:35.320,,,,7.0
2020-07-31 17:26:35.324,,,,7.0
2020-07-31 17:26:35.328,,,,7.0
2020-07-31 17:26:35.332,,,,7.0
2020-07-31 17:26:35.335,,,,7.0
2020-07-31 17:26:35.339,,,,7.0
2020-07-31 17:26:35.343,,,,7.0
2020-07-31 17:26:35.347,,,,7.0
2020-07-31 17:26:35.351,,,,7.0
2020-07-31 17:26:35.355,,,,7.0
2020-07-31 17:26:35.359,,,,7.0
2020-07-31 17:26:35.363,,,,7.0
2020-07-31 17:26:35.367,,,,7.0
2020-07-31 17:26:35.371,,,,7.0
2020-07-31 17:26:35.375,,,,7.0
2020-07-31 17:26:35.378,,,,7.0
2020-07-31 17:26:35.382,,,,7.0
2020-07-31 17:26:35.386,,,,7.0
2020-07-31 17:26:35.390,,,,7.0
2020-07-31 17:26:35.394,,,,7.0
2020-07-31 17:26:35.398,,,,7.0
2020-07-31 17:26:35.402,,,,7.0
2020-07-31 17:26:35.406,,,,7.0
2020-07-31 17:26:35.410,,,,7.0
2020-07-31 17:26:35.414,,,,7.0
2020-07-31 17:26:35.417,,,,7.0
2020-07-31 17:26:35.421,,,,7.0
2020-07-31 17:26:35.425,,,,7.0
2020-07-31 17:26:35.429,,,,7.0
2020-07-31 17:26:35.433,,,,7.0
2020-07-31 17:26:35.437,,,,7.0
2020-07-31 17:26:35.441,,,,7.0
2020-07-31 17:26:35.445,,,,7.0
2020-07-31 17:26:35.449,,,,7.0
2020-07-31 17:26:35.453,,,,7.0
2020-07-31 17:26:35.457,,,,7.0
2020-07-31 17:26:35.460,,,,7.0
2020-07-31 17:26:35.464,,,,7.0
2020-07-31 17:26:35.468,,,,7.0
2020-07-31 17:26:35.472,,,,7.0
2020-07-31 17:26:35.476,,,,7.0
2020-07-31 17:26:35.480,,,,7.0
2020-07-31 17:26:35.484,,,,7.0
2020-07-31 17:26:35.488,,,,7.0
2020-07-31 17:26:35.492,,,,7.0
2020-07-31 17:26:35.496,,,,7.0
2020-07-31 17:26:35.500,,,,7.0
2020-07-31 17:26:35.503,,,,7.0
2020-07-31 17:26:35.507,,,,7.0
2020-07-31 17:26:35.511,,,,7.0
2020-07-31 17:26:35.515,,,,7.0
2020-07-31 17:26:35.519,,,,7.0
2020-07-31 17:26:35.523,,,,7.0
2020-07-31 17:26:35.527,,,,7.0
2020-07-31 17:26:35.531,,,,7.0
2020-07-31 17:26:35.535,,,,7.0
2020-07-31 17:26:35.539,,,,7.0
2020-07-31 17:26:35.542,,,,7.0
2020-07-31 17:26:35.546,,,,7.0
2020-07-31 17:26:35.550,,,,7.0
2020-07-31 17:26:35.554,,,,7.0
2020-07-31 17:26:35.558,,,,7.0
2020-07-31 17:26:35.562,,,,7.0
2020-07-31 17:26:35.566,,,,7.0
2020-07-31 17:26:35.570,,,,7.0
2020-07-31 17:26:35.574,,,,7.0
2020-07-31 17:26:35.578,,,,7.0
2020-07-31 17:26:35.582,,,,7.0
2020-07-31 17:26:35.585,,,,7.0
2020-07-31 17:26:35.589,,,,7.0
2020-07-31 17:26:35.593,,,,7.0
2020-07-31 17:26:35.597,,,,7.0
2020-07-31 17:26:35.601,,,,7.0
2020-07-31 17:26:35.605,,,,7.0
2020-07-31 17:26:35.609,,,,7.0
2020-07-31 17:26:35.613,,,,7.0
2020-07-31 17:26:35.617,,,,7.0
2020-07-31 17:26:35.621,,,,7.0
2020-07-31 17:26:35.625,,,,7.0
2020-07-31 17:26:35.628,,,,7.0
2020-07-31 17:26:35.632,,,,7.0
2020-07-31 17:26:35.636,,,,7.0
2020-07-31 17:26:35.640,,,,7.0
2020-07-31 17:26:35.644,,,,7.0
2020-07-31 17:26:35.648,,,,7.0
2020-07-31 17:26:35.652,,,,7.0
2020-07-31 17:26:35.656,,,,7.0
2020-07-31 17:26:35.660,,,,7.0
2020-07-31 17:26:35.664,,,,7.0
2020-07-31 17:26:35.667,,,,7.0
2020-07-31 17:26:35.671,,,,7.0
2020-07-31 17:26:35.675,,,,7.0
2020-07-31 17:26:35.679,,,,7.0
2020-07-31 17:26:35.683,,,,7.0
2020-07-31 17:26:35.687,,,,7.0
2020-07-31 17:26:35.691,,,,7.0
2020-07-31 17:26:35.695,,,,7.0
2020-07-31 17:26:35.699,,,,7.0
2020-07-31 17:26:35.703,,,,7.0
2020-07-31 17:26:35.707,,,,7.0
2020-07-31 17:26:35.710,,,,7.0
2020-07-31 17:26:35.714,,,,7.0
2020-07-31 17:26:35.718,,,,7.0
2020-07-31 17:26:35.722,,,,7.0
2020-07-31 17:26:35.726,,,,7.0
2020-07-31 17:26:35.730,,,,7.0
2020-07-31 17:26:35.734,,,,7.0
2020-07-31 17:26:35.738,,,,7.0
2020-07-31 17:26:35.742,,,,7.0
2020-07-31 17:26:35.746,,,,7.0
2020-07-31 17:26:35.750,,,,7.0
2020-07-31 17:26:35.753,,,,7.0
2020-07-31 17:26:35.757,,,,7.0
2020-07-31 17:26:35.761,,,,7.0
2020-07-31 17:26:35.765,,,,7.0
2020-07-31 17:26:35.769,,,,7.0
2020-07-31 17:26:35.773,,,,7.0
2020-07-31 17:26:35.777,,,,7.0
2020-07-31 17:26:35.781,,,,7.0
2020-07-31 17:26:35.785,,,,7.0
2020-07-31 17:26:35.789,,,,7.0
2020-07-31 17:26:35.792,,,,7.0
2020-07-31 17:26:35.796,,,,7.0
2020-07-31 17:26:35.800,,,,7.0
2020-07-31 17:26:35.804,,,,7.0
2020-07-31 17:26:35.808,,,,7.0
2020-07-31 17:26:35.812,,,,7.0
2020-07-31 17:26:35.816,,,,7.0
2020-07-31 17:26:35.820,,,,7.0
2020-07-31 17:26:35.824,,,,7.0
2020-07-31 17:26:35.828,,,,7.0
2020-07-31 17:26:35.832,,,,7.0
2020-07-31 17:26:35.835,,,,7.0
2020-07-31 17:26:35.839,,,,7.0
2020-07-31 17:26:35.843,,,,7.0
2020-07-31 17:26:35.847,,,,7.0
2020-07-31 17:26:35.851,,,,7.0
2020-07-31 17:26:35.855,,,,7.0
2020-07-31 17:26:35.859,,,,7.0
2020-07-31 17:26:35.863,,,,7.0
2020-07-31 17:26:35.867,,,,7.0
2020-07-31 17:26:35.871,,,,7.0
2020-07-31 17:26:35.875,,,,7.0
2020-07-31 17:26:35.878,,,,7.0
2020-07-31 17:26:35.882,,,,7.0
2020-07-31 17:26:35.886,,,,7.0
2020-07-31 17:26:35.890,,,,7.0
2020-07-31 17:26:35.894,,,,7.0
2020-07-31 17:26:35.898,,,,7.0
2020-07-31 17:26:35.902,,,,7.0
2020-07-31 17:26:35.906,,,,7.0
2020-07-31 17:26:35.910,,,,7.0
2020-07-31 17:26:35.914,,,,7.0
2020-07-31 17:26:35.917,,,,7.0
2020-07-31 17:26:35.921,,,,7.0
2020-07-31 17:26:35.925,,,,7.0
2020-07-31 17:26:35.929,,,,7.0
2020-07-31 17:26:35.933,,,,7.0
2020-07-31 17:26:35.937,,,,7.0
2020-07-31 17:26:35.941,,,,7.0
2020-07-31 17:26:35.945,,,,7.0
2020-07-31 17:26:35.949,,,,7.0
2020-07-31 17:26:35.953,,,,7.0
2020-07-31 17:26:35.957,,,,7.0
2020-07-31 17:26:35.960,,,,7.0
2020-07-31 17:26:35.964,,,,7.0
2020-07-31 17:26:35.968,,,,7.0
2020-07-31 17:26:35.972,,,,7.0
2020-07-31 17:26:35.976,,,,7.0
2020-07-31 17:26:35.980,,,,7.0
2020-07-31 17:26:35.984,,,,7.0
2020-07-31 17:26:35.988,,,,7.0
2020-07-31 17:26:35.992,,,,7.0
2020-07-31 17:26:35.996,,,,7.0
2020-07-31 17:26:36.000,,,,7.0
2020-07-31 17:26:36.003,,,,7.0
2020-07-31 17:26:36.007,,,,7.0
2020-07-31 17:26:36.011,,,,7.0
2020-07-31 17:26:36.015,,,,7.0
2020-07-31 17:26:36.019,,,,7.0
2020-07-31 17:26:36.023,,,,7.0
2020-07-31 17:26:36.027,,,,7.0
2020-07-31 17:26:36.031,,,,7.0
2020-07-31 17:26:36.035,,,,7.0
2020-07-31 17:26:36.039,,,,7.0
2020-07-31 17:26:36.042,,,,7.0
2020-07-31 17:26:36.046,,,,7.0
2020-07-31 17:26:36.050,,,,7.0
2020-07-31 17:26:36.054,,,,7.0
2020-07-31 17:26:36.058,,,,7.0
2020-07-31 17:26:36.062,,,,7.0
2020-07-31 17:26:36.066,,,,7.0
2020-07-31 17:26:36.070,,,,7.0
2020-07-31 17:26:36.074,,,,7.0
2020-07-31 17:26:36.078,,,,7.0
2020-07-31 17:26:36.082,,,,7.0
2020-07-31 17:26:36.085,,,,7.0
2020-07-31 17:26:36.089,,,,7.0
2020-07-31 17:26:36.093,,,,7.0
2020-07-31 17:26:36.097,,,,7.0
2020-07-31 17:26:36.101,,,,7.0
2020-07-31 17:26:36.105,,,,7.0
2020-07-31 17:26:36.109,,,,7.0
2020-07-31 17:26:36.113,,,,7.0
2020-07-31 17:26:36.117,,,,7.0
2020-07-31 17:26:36.121,,,,7.0
2020-07-31 17:26:36.125,,,,7.0
2020-07-31 17:26:36.128,,,,7.0
2020-07-31 17:26:36.132,,,,7.0
2020-07-31 17:26:36.136,,,,7.0
2020-07-31 17:26:36.140,,,,7.0
2020-07-31 17:26:36.144,,,,7.0
2020-07-31 17:26:36.148,,,,7.0
2020-07-31 17:26:36.152,,,,7.0
2020-07-31 17:26:36.156,,,,7.0
2020-07-31 17:26:36.160,,,,7.0
2020-07-31 17:26:36.164,,,,7.0
2020-07-31 17:26:36.167,,,,7.0
2020-07-31 17:26:36.171,,,,7.0
2020-07-31 17:26:36.175,,,,7.0
2020-07-31 17:26:36.179,,,,7.0
2020-07-31 17:26:36.183,,,,7.0
2020-07-31 17:26:36.187,,,,7.0
2020-07-31 17:26:36.191,,,,7.0
2020-07-31 17:26:36.195,,,,7.0
2020-07-31 17:26:36.199,,,,7.0
2020-07-31 17:26:36.203,,,,7.0
2020-07-31 17:26:36.207,,,,7.0
2020-07-31 17:26:36.210,,,,7.0
2020-07-31 17:26:36.214,,,,7.0
2020-07-31 17:26:36.218,,,,7.0
2020-07-31 17:26:36.222,,,,7.0
2020-07-31 17:26:36.226,,,,7.0
2020-07-31 17:26:36.230,,,,7.0
2020-07-31 17:26:36.234,,,,7.0
2020-07-31 17:26:36.238,,,,7.0
2020-07-31 17:26:36.242,,,,7.0
2020-07-31 17:26:36.246,,,,7.0
2020-07-31 17:26:36.250,,,,7.0
2020-07-31 17:26:36.253,,,,7.0
2020-07-31 17:26:36.257,,,,7.0
2020-07-31 17:26:36.261,,,,7.0
2020-07-31 17:26:36.265,,,,7.0
2020-07-31 17:26:36.269,,,,7.0
2020-07-31 17:26:36.273,,,,7.0
2020-07-31 17:26:36.277,,,,7.0
2020-07-31 17:26:36.281,,,,7.0
2020-07-31 17:26:36.285,,,,7.0
2020-07-31 17:26:36.289,,,,7.0
2020-07-31 17:26:36.292,,,,7.0
2020-07-31 17:26:36.296,,,,7.0
2020-07-31 17:26:36.300,,,,7.0
2020-07-31 17:26:36.304,,,,7.0
2020-07-31 17:26:36.308,,,,7.0
2020-07-31 17:26:36.312,,,,7.0
2020-07-31 17:26:36.316,,,,7.0
2020-07-31 17:26:36.320,,,,7.0
2020-07-31 17:26:36.324,,,,7.0
2020-07-31 17:26:36.328,,,,7.0
2020-07-31 17:26:36.332,,,,7.0
2020-07-31 17:26:36.335,,,,7.0
2020-07-31 17:26:36.339,,,,7.0
2020-07-31 17:26:36.343,,,,7.0
2020-07-31 17:26:36.347,,,,7.0
2020-07-31 17:26:36.351,,,,7.0
2020-07-31 17:26:36.355,,,,7.0
2020-07-31 17:26:36.359,,,,7.0
2020-07-31 17:26:36.363,,,,7.0
2020-07-31 17:26:36.367,,,,7.0
2020-07-31 17:26:36.371,,,,7.0
2020-07-31 17:26:36.375,,,,7.0
2020-07-31 17:26:36.378,,,,7.0
2020-07-31 17:26:36.382,,,,7.0
2020-07-31 17:26:36.386,,,,7.0
2020-07-31 17:26:36.390,,,,7.0
2020-07-31 17:26:36.394,,,,7.0
2020-07-31 17:26:36.398,,,,7.0
2020-07-31 17:26:36.402,,,,7.0
2020-07-31 17:26:36.406,,,,7.0
2020-07-31 17:26:36.410,,,,7.0
2020-07-31 17:26:36.414,,,,7.0
2020-07-31 17:26:36.417,,,,7.0
2020-07-31 17:26:36.421,,,,7.0
2020-07-31 17:26:36.425,,,,7.0
2020-07-31 17:26:36.429,,,,7.0
2020-07-31 17:26:36.433,,,,7.0
2020-07-31 17:26:36.437,,,,7.0
2020-07-31 17:26:36.441,,,,7.0
2020-07-31 17:26:36.445,,,,7.0
2020-07-31 17:26:36.449,,,,7.0
2020-07-31 17:26:36.453,,,,7.0
2020-07-31 17:26:36.457,,,,7.0
2020-07-31 17:26:36.460,,,,7.0
2020-07-31 17:26:36.464,,,,7.0
2020-07-31 17:26:36.468,,,,7.0
2020-07-31 17:26:36.472,,,,7.0
2020-07-31 17:26:36.476,,,,7.0
2020-07-31 17:26:36.480,,,,7.0
2020-07-31 17:26:36.484,,,,7.0
2020-07-31 17:26:36.488,,,,7.0
2020-07-31 17:26:36.492,,,,7.0
2020-07-31 17:26:36.496,,,,7.0
2020-07-31 17:26:36.500,,,,7.0
2020-07-31 17:26:36.503,,,,7.0
2020-07-31 17:26:36.507,,,,7.0
2020-07-31 17:26:36.511,,,,7.0
2020-07-31 17:26:36.515,,,,7.0
2020-07-31 17:26:36.519,,,,7.0
2020-07-31 17:26:36.523,,,,7.0
2020-07-31 17:26:36.527,,,,7.0
2020-07-31 17:26:36.531,,,,7.0
2020-07-31 17:26:36.535,,,,7.0
2020-07-31 17:26:36.539,,,,7.0
2020-07-31 17:26:36.542,,,,7.0
2020-07-31 17:26:36.546,,,,7.0
2020-07-31 17:26:36.550,,,,7.0
2020-07-31 17:26:36.554,,,,7.0
2020-07-31 17:26:36.558,,,,7.0
2020-07-31 17:26:36.562,,,,7.0
2020-07-31 17:26:36.566,,,,7.0
2020-07-31 17:26:36.570,,,,7.0
2020-07-31 17:26:36.574,,,,7.0
2020-07-31 17:26:36.578,,,,7.0
2020-07-31 17:26:36.582,,,,7.0
2020-07-31 17:26:36.585,,,,7.0
2020-07-31 17:26:36.589,,,,7.0
2020-07-31 17:26:36.593,,,,7.0
2020-07-31 17:26:36.597,,,,7.0
2020-07-31 17:26:36.601,,,,7.0
2020-07-31 17:26:36.605,,,,7.0
2020-07-31 17:26:36.609,,,,7.0
2020-07-31 17:26:36.613,,,,7.0
2020-07-31 17:26:36.617,,,,7.0
2020-07-31 17:26:36.621,,,,7.0
2020-07-31 17:26:36.625,,,,7.0
2020-07-31 17:26:36.628,,,,7.0
2020-07-31 17:26:36.632,,,,7.0
2020-07-31 17:26:36.636,,,,7.0
2020-07-31 17:26:36.640,,,,7.0
2020-07-31 17:26:36.644,,,,7.0
2020-07-31 17:26:36.648,,,,7.0
2020-07-31 17:26:36.652,,,,7.0
2020-07-31 17:26:36.656,,,,7.0
2020-07-31 17:26:36.660,,,,7.0
2020-07-31 17:26:36.664,,,,7.0
2020-07-31 17:26:36.667,,,,7.0
2020-07-31 17:26:36.671,,,,7.0
2020-07-31 17:26:36.675,,,,7.0
2020-07-31 17:26:36.679,,,,7.0
2020-07-31 17:26:36.683,,,,7.0
2020-07-31 17:26:36.687,,,,7.0
2020-07-31 17:26:36.691,,,,7.0
2020-07-31 17:26:36.695,,,,7.0
2020-07-31 17:26:36.699,,,,7.0
2020-07-31 17:26:36.703,,,,7.0
2020-07-31 17:26:36.707,,,,7.0
2020-07-31 17:26:36.710,,,,7.0
2020-07-31 17:26:36.714,,,,7.0
2020-07-31 17:26:36.718,,,,7.0
2020-07-31 17:26:36.722,,,,7.0
2020-07-31 17:26:36.726,,,,7.0
2020-07-31 17:26:36.730,,,,7.0
2020-07-31 17:26:36.734,,,,7.0
2020-07-31 17:26:36.738,,,,7.0
2020-07-31 17:26:36.742,,,,7.0
2020-07-31 17:26:36.746,,,,7.0
2020-07-31 17:26:36.750,,,,7.0
2020-07-31 17:26:36.753,,,,7.0
2020-07-31 17:26:36.757,,,,7.0
2020-07-31 17:26:36.761,,,,7.0
2020-07-31 17:26:36.765,,,,7.0
2020-07-31 17:26:36.769,,,,7.0
2020-07-31 17:26:36.773,,,,7.0
2020-07-31 17:26:36.777,,,,7.0
2020-07-31 17:26:36.781,,,,7.0
2020-07-31 17:26:36.785,,,,7.0
2020-07-31 17:26:36.789,,,,7.0
2020-07-31 17:26:36.792,,,,7.0
2020-07-31 17:26:36.796,,,,7.0
2020-07-31 17:26:36.800,,,,7.0
2020-07-31 17:26:36.804,,,,7.0
2020-07-31 17:26:36.808,,,,7.0
2020-07-31 17:26:36.812,,,,7.0
2020-07-31 17:26:36.816,,,,7.0
2020-07-31 17:26:36.820,,,,7.0
2020-07-31 17:26:36.824,,,,7.0
2020-07-31 17:26:36.828,,,,7.0
2020-07-31 17:26:36.832,,,,7.0
2020-07-31 17:26:36.835,,,,7.0
2020-07-31 17:26:36.839,,,,7.0
2020-07-31 17:26:36.843,,,,7.0
2020-07-31 17:26:36.847,,,,7.0
2020-07-31 17:26:36.851,,,,7.0
2020-07-31 17:26:36.855,,,,7.0
2020-07-31 17:26:36.859,,,,7.0
2020-07-31 17:26:36.863,,,,7.0
2020-07-31 17:26:36.867,,,,7.0
2020-07-31 17:26:36.871,,,,7.0
2020-07-31 17:26:36.875,,,,7.0
2020-07-31 17:26:36.878,,,,7.0
2020-07-31 17:26:36.882,,,,7.0
2020-07-31 17:26:36.886,,,,7.0
2020-07-31 17:26:36.890,,,,7.0
2020-07-31 17:26:36.894,,,,7.0
2020-07-31 17:26:36.898,,,,7.0
2020-07-31 17:26:36.902,,,,7.0
2020-07-31 17:26:36.906,,,,7.0
2020-07-31 17:26:36.910,,,,7.0
2020-07-31 17:26:36.914,,,,7.0
2020-07-31 17:26:36.917,,,,7.0
2020-07-31 17:26:36.921,,,,7.0
2020-07-31 17:26:36.925,,,,7.0
2020-07-31 17:26:36.929,,,,7.0
2020-07-31 17:26:36.933,,,,7.0
2020-07-31 17:26:36.937,,,,7.0
2020-07-31 17:26:36.941,,,,7.0
2020-07-31 17:26:36.945,,,,7.0
2020-07-31 17:26:36.949,,,,7.0
2020-07-31 17:26:36.953,,,,7.0
2020-07-31 17:26:36.957,,,,7.0
2020-07-31 17:26:36.960,,,,7.0
2020-07-31 17:26:36.964,,,,7.0
2020-07-31 17:26:36.968,,,,7.0
2020-07-31 17:26:36.972,,,,7.0
2020-07-31 17:26:36.976,,,,7.0
2020-07-31 17:26:36.980,,,,7.0
2020-07-31 17:26:36.984,,,,7.0
2020-07-31 17:26:36.988,,,,7.0
2020-07-31 17:26:36.992,,,,7.0
2020-07-31 17:26:36.996,,,,7.0
2020-07-31 17:26:37.000,,,,7.0
2020-07-31 17:26:37.003,,,,7.0
2020-07-31 17:26:37.007,,,,7.0
2020-07-31 17:26:37.011,,,,7.0
2020-07-31 17:26:37.015,,,,7.0
2020-07-31 17:26:37.019,,,,7.0
2020-07-31 17:26:37.023,,,,7.0
2020-07-31 17:26:37.027,,,,7.0
2020-07-31 17:26:37.031,,,,7.0
2020-07-31 17:26:37.035,,,,7.0
2020-07-31 17:26:37.039,,,,7.0
2020-07-31 17:26:37.042,,,,7.0
2020-07-31 17:26:37.046,,,,7.0
2020-07-31 17:26:37.050,,,,7.0
2020-07-31 17:26:37.054,,,,7.0
2020-07-31 17:26:37.058,,,,7.0
2020-07-31 17:26:37.062,,,,7.0
2020-07-31 17:26:37.066,,,,7.0
2020-07-31 17:26:37.070,,,,7.0
2020-07-31 17:26:37.074,,,,7.0
2020-07-31 17:26:37.078,,,,7.0
2020-07-31 17:26:37.082,,,,7.0
2020-07-31 17:26:37.085,,,,7.0
2020-07-31 17:26:37.089,,,,7.0
2020-07-31 17:26:37.093,,,,7.0
2020-07-31 17:26:37.097,,,,7.0
2020-07-31 17:26:37.101,,,,7.0
2020-07-31 17:26:37.105,,,,7.0
2020-07-31 17:26:37.109,,,,7.0
2020-07-31 17:26:37.113,,,,7.0
2020-07-31 17:26:37.117,,,,7.0
2020-07-31 17:26:37.121,,,,7.0
2020-07-31 17:26:37.125,,,,7.0
2020-07-31 17:26:37.128,,,,7.0
2020-07-31 17:26:37.132,,,,7.0
2020-07-31 17:26:37.136,,,,7.0
2020-07-31 17:26:37.140,,,,7.0
2020-07-31 17:26:37.144,,,,7.0
2020-07-31 17:26:37.148,,,,7.0
2020-07-31 17:26:37.152,,,,7.0
2020-07-31 17:26:37.156,,,,7.0
2020-07-31 17:26:37.160,,,,7.0
2020-07-31 17:26:37.164,,,,7.0
2020-07-31 17:26:37.167,,,,7.0
2020-07-31 17:26:37.171,,,,7.0
2020-07-31 17:26:37.175,,,,7.0
2020-07-31 17:26:37.179,,,,7.0
2020-07-31 17:26:37.183,,,,7.0
2020-07-31 17:26:37.187,,,,7.0
2020-07-31 17:26:37.191,,,,7.0
2020-07-31 17:26:37.195,,,,7.0
2020-07-31 17:26:37.199,,,,7.0
2020-07-31 17:26:37.203,,,,7.0
2020-07-31 17:26:37.207,,,,7.0
2020-07-31 17:26:37.210,,,,7.0
2020-07-31 17:26:37.214,,,,7.0
2020-07-31 17:26:37.218,,,,7.0
2020-07-31 17:26:37.222,,,,7.0
2020-07-31 17:26:37.226,,,,7.0
2020-07-31 17:26:37.230,,,,7.0
2020-07-31 17:26:37.234,,,,7.0
2020-07-31 17:26:37.238,,,,7.0
2020-07-31 17:26:37.242,,,,7.0
2020-07-31 17:26:37.246,,,,7.0
2020-07-31 17:26:37.250,,,,7.0
2020-07-31 17:26:37.253,,,,7.0
2020-07-31 17:26:37.257,,,,7.0
2020-07-31 17:26:37.261,,,,7.0
2020-07-31 17:26:37.265,,,,7.0
2020-07-31 17:26:37.269,,,,7.0
2020-07-31 17:26:37.273,,,,7.0
2020-07-31 17:26:37.277,,,,7.0
2020-07-31 17:26:37.281,,,,7.0
2020-07-31 17:26:37.285,,,,7.0
2020-07-31 17:26:37.289,,,,7.0
2020-07-31 17:26:37.292,,,,7.0
2020-07-31 17:26:37.296,,,,7.0
2020-07-31 17:26:37.300,,,,7.0
2020-07-31 17:26:37.304,,,,7.0
2020-07-31 17:26:37.308,,,,7.0
2020-07-31 17:26:37.312,,,,7.0
2020-07-31 17:26:37.316,,,,7.0
2020-07-31 17:26:37.320,,,,7.0
2020-07-31 17:26:37.324,,,,7.0
2020-07-31 17:26:37.328,,,,7.0
2020-07-31 17:26:37.332,,,,7.0
2020-07-31 17:26:37.335,,,,7.0
2020-07-31 17:26:37.339,,,,7.0
2020-07-31 17:26:37.343,,,,7.0
2020-07-31 17:26:37.347,,,,7.0
2020-07-31 17:26:37.351,,,,7.0
2020-07-31 17:26:37.355,,,,7.0
2020-07-31 17:26:37.359,,,,7.0
2020-07-31 17:26:37.363,,,,7.0
2020-07-31 17:26:37.367,,,,7.0
2020-07-31 17:26:37.371,,,,7.0
2020-07-31 17:26:37.375,,,,7.0
2020-07-31 17:26:37.378,,,,7.0
2020-07-31 17:26:37.382,,,,7.0
2020-07-31 17:26:37.386,,,,7.0
2020-07-31 17:26:37.390,,,,7.0
2020-07-31 17:26:37.394,,,,7.0
2020-07-31 17:26:37.398,,,,7.0
2020-07-31 17:26:37.402,,,,7.0
2020-07-31 17:26:37.406,,,,7.0
2020-07-31 17:26:37.410,,,,7.0
2020-07-31 17:26:37.414,,,,7.0
2020-07-31 17:26:37.417,,,,7.0
2020-07-31 17:26:37.421,,,,7.0
2020-07-31 17:26:37.425,,,,7.0
2020-07-31 17:26:37.429,,,,7.0
2020-07-31 17:26:37.433,,,,7.0
2020-07-31 17:26:37.437,,,,7.0
2020-07-31 17:26:37.441,,,,7.0
2020-07-31 17:26:37.445,,,,7.0
2020-07-31 17:26:37.449,,,,7.0
2020-07-31 17:26:37.453,,,,7.0
2020-07-31 17:26:37.457,,,,7.0
2020-07-31 17:26:37.460,,,,7.0
2020-07-31 17:26:37.464,,,,7.0
2020-07-31 17:26:37.468,,,,7.0
2020-07-31 17:26:37.472,,,,7.0
2020-07-31 17:26:37.476,,,,7.0
2020-07-31 17:26:37.480,,,,7.0
2020-07-31 17:26:37.484,,,,7.0
2020-07-31 17:26:37.488,,,,7.0
2020-07-31 17:26:37.492,,,,7.0
2020-07-31 17:26:37.496,,,,7.0
2020-07-31 17:26:37.500,,,,7.0
2020-07-31 17:26:37.503,,,,7.0
2020-07-31 17:26:37.507,,,,7.0
2020-07-31 17:26:37.511,,,,7.0
2020-07-31 17:26:37.515,,,,7.0
2020-07-31 17:26:37.519,,,,7.0
2020-07-31 17:26:37.523,,,,7.0
2020-07-31 17:26:37.527,,,,7.0
2020-07-31 17:26:37.531,,,,7.0
2020-07-31 17:26:37.535,,,,7.0
2020-07-31 17:26:37.539,,,,7.0
2020-07-31 17:26:37.542,,,,7.0
2020-07-31 17:26:37.546,,,,7.0
2020-07-31 17:26:37.550,,,,7.0
2020-07-31 17:26:37.554,,,,7.0
2020-07-31 17:26:37.558,,,,7.0
2020-07-31 17:26:37.562,,,,7.0
2020-07-31 17:26:37.566,,,,7.0
2020-07-31 17:26:37.570,,,,7.0
2020-07-31 17:26:37.574,,,,7.0
2020-07-31 17:26:37.578,,,,7.0
2020-07-31 17:26:37.582,,,,7.0
2020-07-31 17:26:37.585,,,,7.0
2020-07-31 17:26:37.589,,,,7.0
2020-07-31 17:26:37.593,,,,7.0
2020-07-31 17:26:37.597,,,,7.0
2020-07-31 17:26:37.601,,,,7.0
2020-07-31 17:26:37.605,,,,7.0
2020-07-31 17:26:37.609,,,,7.0
2020-07-31 17:26:37.613,,,,7.0
2020-07-31 17:26:37.617,,,,7.0
2020-07-31 17:26:37.621,,,,7.0
2020-07-31 17:26:37.625,,,,7.0
2020-07-31 17:26:37.628,,,,7.0
2020-07-31 17:26:37.632,,,,7.0
2020-07-31 17:26:37.636,,,,7.0
2020-07-31 17:26:37.640,,,,7.0
2020-07-31 17:26:37.644,,,,7.0
2020-07-31 17:26:37.648,,,,7.0
2020-07-31 17:26:37.652,,,,7.0
2020-07-31 17:26:37.656,,,,7.0
2020-07-31 17:26:37.660,,,,7.0
2020-07-31 17:26:37.664,,,,7.0
2020-07-31 17:26:37.667,,,,7.0
2020-07-31 17:26:37.671,,,,7.0
2020-07-31 17:26:37.675,,,,7.0
2020-07-31 17:26:37.679,,,,7.0
2020-07-31 17:26:37.683,,,,7.0
2020-07-31 17:26:37.687,,,,7.0
2020-07-31 17:26:37.691,,,,7.0
2020-07-31 17:26:37.695,,,,7.0
2020-07-31 17:26:37.699,,,,7.0
2020-07-31 17:26:37.703,,,,7.0
2020-07-31 17:26:37.707,,,,7.0
2020-07-31 17:26:37.710,,,,7.0
2020-07-31 17:26:37.714,,,,7.0
2020-07-31 17:26:37.718,,,,7.0
2020-07-31 17:26:37.722,,,,7.0
2020-07-31 17:26:37.726,,,,7.0
2020-07-31 17:26:37.730,,,,7.0
2020-07-31 17:26:37.734,,,,7.0
2020-07-31 17:26:37.738,,,,7.0
2020-07-31 17:26:37.742,,,,7.0
2020-07-31 17:26:37.746,,,,7.0
2020-07-31 17:26:37.750,,,,7.0
2020-07-31 17:26:37.753,,,,7.0
2020-07-31 17:26:37.757,,,,7.0
2020-07-31 17:26:37.761,,,,7.0
2020-07-31 17:26:37.765,,,,7.0
2020-07-31 17:26:37.769,,,,7.0
2020-07-31 17:26:37.773,,,,7.0
2020-07-31 17:26:37.777,,,,7.0
2020-07-31 17:26:37.781,,,,7.0
2020-07-31 17:26:37.785,,,,7.0
2020-07-31 17:26:37.789,,,,7.0
2020-07-31 17:26:37.792,,,,7.0
2020-07-31 17:26:37.796,,,,7.0
2020-07-31 17:26:37.800,,,,7.0
2020-07-31 17:26:37.804,,,,7.0
2020-07-31 17:26:37.808,,,,7.0
2020-07-31 17:26:37.812,,,,7.0
2020-07-31 17:26:37.816,,,,7.0
2020-07-31 17:26:37.820,,,,7.0
2020-07-31 17:26:37.824,,,,7.0
2020-07-31 17:26:37.828,,,,7.0
2020-07-31 17:26:37.832,,,,7.0
2020-07-31 17:26:37.835,,,,7.0
2020-07-31 17:26:37.839,,,,7.0
2020-07-31 17:26:37.843,,,,7.0
2020-07-31 17:26:37.847,,,,7.0
2020-07-31 17:26:37.851,,,,7.0
2020-07-31 17:26:37.855,,,,7.0
2020-07-31 17:26:37.859,,,,7.0
2020-07-31 17:26:37.863,,,,7.0
2020-07-31 17:26:37.867,,,,7.0
2020-07-31 17:26:37.871,,,,7.0
2020-07-31 17:26:37.875,,,,7.0
2020-07-31 17:26:37.878,,,,7.0
2020-07-31 17:26:37.882,,,,7.0
2020-07-31 17:26:37.886,,,,7.0
2020-07-31 17:26:37.890,,,,7.0
2020-07-31 17:26:37.894,,,,7.0
2020-07-31 17:26:37.898,,,,7.0
2020-07-31 17:26:37.902,,,,7.0
2020-07-31 17:26:37.906,,,,7.0
2020-07-31 17:26:37.910,,,,7.0
2020-07-31 17:26:37.914,,,,7.0
2020-07-31 17:26:37.917,,,,7.0
2020-07-31 17:26:37.921,,,,7.0
2020-07-31 17:26:37.925,,,,7.0
2020-07-31 17:26:37.929,,,,7.0
2020-07-31 17:26:37.933,,,,7.0
2020-07-31 17:26:37.937,,,,7.0
2020-07-31 17:26:37.941,,,,7.0
2020-07-31 17:26:37.945,,,,7.0
2020-07-31 17:26:37.949,,,,7.0
2020-07-31 17:26:37.953,,,,7.0
2020-07-31 17:26:37.957,,,,7.0
2020-07-31 17:26:37.960,,,,7.0
2020-07-31 17:26:37.964,,,,7.0
2020-07-31 17:26:37.968,,,,7.0
2020-07-31 17:26:37.972,,,,7.0
2020-07-31 17:26:37.976,,,,7.0
2020-07-31 17:26:37.980,,,,7.0
2020-07-31 17:26:37.984,,,,7.0
2020-07-31 17:26:37.988,,,,7.0
2020-07-31 17:26:37.992,,,,7.0
2020-07-31 17:26:37.996,,,,7.0
2020-07-31 17:26:38.000,,,,7.0
2020-07-31 17:26:38.003,,,,7.0
2020-07-31 17:26:38.007,,,,7.0
2020-07-31 17:26:38.011,,,,7.0
2020-07-31 17:26:38.015,,,,7.0
2020-07-31 17:26:38.019,,,,7.0
2020-07-31 17:26:38.023,,,,7.0
2020-07-31 17:26:38.027,,,,7.0
2020-07-31 17:26:38.031,,,,7.0
2020-07-31 17:26:38.035,,,,7.0
2020-07-31 17:26:38.039,,,,7.0
2020-07-31 17:26:38.042,,,,7.0
2020-07-31 17:26:38.046,,,,7.0
2020-07-31 17:26:38.050,,,,7.0
2020-07-31 17:26:38.054,,,,7.0
2020-07-31 17:26:38.058,,,,7.0
2020-07-31 17:26:38.062,,,,7.0
2020-07-31 17:26:38.066,,,,7.0
2020-07-31 17:26:38.070,,,,7.0
2020-07-31 17:26:38.074,,,,7.0
2020-07-31 17:26:38.078,,,,7.0
2020-07-31 17:26:38.082,,,,7.0
2020-07-31 17:26:38.085,,,,7.0
2020-07-31 17:26:38.089,,,,7.0
2020-07-31 17:26:38.093,,,,7.0
2020-07-31 17:26:38.097,,,,7.0
2020-07-31 17:26:38.101,,,,7.0
2020-07-31 17:26:38.105,,,,7.0
2020-07-31 17:26:38.109,,,,7.0
2020-07-31 17:26:38.113,,,,7.0
2020-07-31 17:26:38.117,,,,7.0
2020-07-31 17:26:38.121,,,,7.0
2020-07-31 17:26:38.125,,,,7.0
2020-07-31 17:26:38.128,,,,7.0
2020-07-31 17:26:38.132,,,,7.0
2020-07-31 17:26:38.136,,,,7.0
2020-07-31 17:26:38.140,,,,7.0
2020-07-31 17:26:38.144,,,,7.0
2020-07-31 17:26:38.148,,,,7.0
2020-07-31 17:26:38.152,,,,7.0
2020-07-31 17:26:38.156,,,,7.0
2020-07-31 17:26:38.160,,,,7.0
2020-07-31 17:26:38.164,,,,7.0
2020-07-31 17:26:38.167,,,,7.0
2020-07-31 17:26:38.171,,,,7.0
2020-07-31 17:26:38.175,,,,7.0
2020-07-31 17:26:38.179,,,,7.0
2020-07-31 17:26:38.183,,,,7.0
2020-07-31 17:26:38.187,,,,7.0
2020-07-31 17:26:38.191,,,,7.0
2020-07-31 17:26:38.195,,,,7.0
2020-07-31 17:26:38.199,,,,7.0
2020-07-31 17:26:38.203,,,,7.0
2020-07-31 17:26:38.207,,,,7.0
2020-07-31 17:26:38.210,,,,7.0
2020-07-31 17:26:38.214,,,,7.0
2020-07-31 17:26:38.218,,,,7.0
2020-07-31 17:26:38.222,,,,7.0
2020-07-31 17:26:38.226,,,,7.0
2020-07-31 17:26:38.230,,,,7.0
2020-07-31 17:26:38.234,,,,7.0
2020-07-31 17:26:38.238,,,,7.0
2020-07-31 17:26:38.242,,,,7.0
2020-07-31 17:26:38.246,,,,7.0
2020-07-31 17:26:38.250,,,,7.0
2020-07-31 17:26:38.253,,,,7.0
2020-07-31 17:26:38.257,,,,7.0
2020-07-31 17:26:38.261,,,,7.0
2020-07-31 17:26:38.265,,,,7.0
2020-07-31 17:26:38.269,,,,7.0
2020-07-31 17:26:38.273,,,,7.0
2020-07-31 17:26:38.277,,,,7.0
2020-07-31 17:26:38.281,,,,7.0
2020-07-31 17:26:38.285,,,,7.0
2020-07-31 17:26:38.289,,,,7.0
2020-07-31 17:26:38.292,,,,7.0
2020-07-31 17:26:38.296,,,,7.0
2020-07-31 17:26:38.300,,,,7.0
2020-07-31 17:26:38.304,,,,7.0
2020-07-31 17:26:38.308,,,,7.0
2020-07-31 17:26:38.312,,,,7.0
2020-07-31 17:26:38.316,,,,7.0
2020-07-31 17:26:38.320,,,,7.0
2020-07-31 17:26:38.324,,,,7.0
2020-07-31 17:26:38.328,,,,7.0
2020-07-31 17:26:38.332,,,,7.0
2020-07-31 17:26:38.335,,,,7.0
2020-07-31 17:26:38.339,,,,7.0
2020-07-31 17:26:38.343,,,,7.0
2020-07-31 17:26:38.347,,,,7.0
2020-07-31 17:26:38.351,,,,7.0
2020-07-31 17:26:38.355,,,,7.0
2020-07-31 17:26:38.359,,,,7.0
2020-07-31 17:26:38.363,,,,7.0
2020-07-31 17:26:38.367,,,,7.0
2020-07-31 17:26:38.371,,,,7.0
2020-07-31 17:26:38.375,,,,7.0
2020-07-31 17:26:38.378,,,,7.0
2020-07-31 17:26:38.382,,,,7.0
2020-07-31 17:26:38.386,,,,7.0
2020-07-31 17:26:38.390,,,,7.0
2020-07-31 17:26:38.394,,,,7.0
2020-07-31 17:26:38.398,,,,7.0
2020-07-31 17:26:38.402,,,,7.0
2020-07-31 17:26:38.406,,,,7.0
2020-07-31 17:26:38.410,,,,7.0
2020-07-31 17:26:38.414,,,,7.0
2020-07-31 17:26:38.417,,,,7.0
2020-07-31 17:26:38.421,,,,7.0
2020-07-31 17:26:38.425,,,,7.0
2020-07-31 17:26:38.429,,,,7.0
2020-07-31 17:26:38.433,,,,7.0
2020-07-31 17:26:38.437,,,,7.0
2020-07-31 17:26:38.441,,,,7.0
2020-07-31 17:26:38.445,,,,7.0
2020-07-31 17:26:38.449,,,,7.0
2020-07-31 17:26:38.453,,,,7.0
2020-07-31 17:26:38.457,,,,7.0
2020-07-31 17:26:38.460,,,,7.0
2020-07-31 17:26:38.464,,,,7.0
2020-07-31 17:26:38.468,,,,7.0
2020-07-31 17:26:38.472,,,,7.0
2020-07-31 17:26:38.476,,,,7.0
2020-07-31 17:26:38.480,,,,7.0
2020-07-31 17:26:38.484,,,,7.0
2020-07-31 17:26:38.488,,,,7.0
2020-07-31 17:26:38.492,,,,7.0
2020-07-31 17:26:38.496,,,,7.0
2020-07-31 17:26:38.500,,,,7.0
2020-07-31 17:26:38.503,,,,7.0
2020-07-31 17:26:38.507,,,,7.0
2020-07-31 17:26:38.511,,,,7.0
2020-07-31 17:26:38.515,,,,7.0
2020-07-31 17:26:38.519,,,,7.0
2020-07-31 17:26:38.523,,,,7.0
2020-07-31 17:26:38.527,,,,7.0
2020-07-31 17:26:38.531,,,,7.0
2020-07-31 17:26:38.535,,,,7.0
2020-07-31 17:26:38.539,,,,7.0
2020-07-31 17:26:38.542,,,,7.0
2020-07-31 17:26:38.546,,,,7.0
2020-07-31 17:26:38.550,,,,7.0
2020-07-31 17:26:38.554,,,,7.0
2020-07-31 17:26:38.558,,,,7.0
2020-07-31 17:26:38.562,,,,7.0
2020-07-31 17:26:38.566,,,,7.0
2020-07-31 17:26:38.570,,,,7.0
2020-07-31 17:26:38.574,,,,7.0
2020-07-31 17:26:38.578,,,,7.0
2020-07-31 17:26:38.582,,,,7.0
2020-07-31 17:26:38.585,,,,7.0
2020-07-31 17:26:38.589,,,,7.0
2020-07-31 17:26:38.593,,,,7.0
2020-07-31 17:26:38.597,,,,7.0
2020-07-31 17:26:38.601,,,,7.0
2020-07-31 17:26:38.605,,,,7.0
2020-07-31 17:26:38.609,,,,7.0
2020-07-31 17:26:38.613,,,,7.0
2020-07-31 17:26:38.617,,,,7.0
2020-07-31 17:26:38.621,,,,7.0
2020-07-31 17:26:38.625,,,,7.0
2020-07-31 17:26:38.628,,,,7.0
2020-07-31 17:26:38.632,,,,7.0
2020-07-31 17:26:38.636,,,,7.0
2020-07-31 17:26:38.640,,,,7.0
2020-07-31 17:26:38.644,,,,7.0
2020-07-31 17:26:38.648,,,,7.0
2020-07-31 17:26:38.652,,,,7.0
2020-07-31 17:26:38.656,,,,7.0
2020-07-31 17:26:38.660,,,,7.0
2020-07-31 17:26:38.664,,,,7.0
2020-07-31 17:26:38.667,,,,7.0
2020-07-31 17:26:38.671,,,,7.0
2020-07-31 17:26:38.675,,,,7.0
2020-07-31 17:26:38.679,,,,7.0
2020-07-31 17:26:38.683,,,,7.0
2020-07-31 17:26:38.687,,,,7.0
2020-07-31 17:26:38.691,,,,7.0
2020-07-31 17:26:38.695,,,,7.0
2020-07-31 17:26:38.699,,,,7.0
2020-07-31 17:26:38.703,,,,7.0
2020-07-31 17:26:38.707,,,,7.0
2020-07-31 17:26:38.710,,,,7.0
2020-07-31 17:26:38.714,,,,7.0
2020-07-31 17:26:38.718,,,,7.0
2020-07-31 17:26:38.722,,,,7.0
2020-07-31 17:26:38.726,,,,7.0
2020-07-31 17:26:38.730,,,,7.0
2020-07-31 17:26:38.734,,,,7.0
2020-07-31 17:26:38.738,,,,7.0
2020-07-31 17:26:38.742,,,,7.0
2020-07-31 17:26:38.746,,,,7.0
2020-07-31 17:26:38.750,,,,7.0
2020-07-31 17:26:38.753,,,,7.0
2020-07-31 17:26:38.757,,,,7.0
2020-07-31 17:26:38.761,,,,7.0
2020-07-31 17:26:38.765,,,,7.0
2020-07-31 17:26:38.769,,,,7.0
2020-07-31 17:26:38.773,,,,7.0
2020-07-31 17:26:38.777,,,,7.0
2020-07-31 17:26:38.781,,,,7.0
2020-07-31 17:26:38.785,,,,7.0
2020-07-31 17:26:38.789,,,,7.0
2020-07-31 17:26:38.792,,,,7.0
2020-07-31 17:26:38.796,,,,7.0
2020-07-31 17:26:38.800,,,,7.0
2020-07-31 17:26:38.804,,,,7.0
2020-07-31 17:26:38.808,,,,7.0
2020-07-31 17:26:38.812,,,,7.0
2020-07-31 17:26:38.816,,,,7.0
2020-07-31 17:26:38.820,,,,7.0
2020-07-31 17:26:38.824,,,,7.0
2020-07-31 17:26:38.828,,,,7.0
2020-07-31 17:26:38.832,,,,7.0
2020-07-31 17:26:38.835,,,,7.0
2020-07-31 17:26:38.839,,,,7.0
2020-07-31 17:26:38.843,,,,7.0
2020-07-31 17:26:38.847,,,,7.0
2020-07-31 17:26:38.851,,,,7.0
2020-07-31 17:26:38.855,,,,7.0
2020-07-31 17:26:38.859,,,,7.0
2020-07-31 17:26:38.863,,,,7.0
2020-07-31 17:26:38.867,,,,7.0
2020-07-31 17:26:38.871,,,,7.0
2020-07-31 17:26:38.875,,,,7.0
2020-07-31 17:26:38.878,,,,7.0
2020-07-31 17:26:38.882,,,,7.0
2020-07-31 17:26:38.886,,,,7.0
2020-07-31 17:26:38.890,,,,7.0
2020-07-31 17:26:38.894,,,,7.0
2020-07-31 17:26:38.898,,,,7.0
2020-07-31 17:26:38.902,,,,7.0
2020-07-31 17:26:38.906,,,,7.0
2020-07-31 17:26:38.910,,,,7.0
2020-07-31 17:26:38.914,,,,7.0
2020-07-31 17:26:38.917,,,,7.0
2020-07-31 17:26:38.921,,,,7.0
2020-07-31 17:26:38.925,,,,7.0
2020-07-31 17:26:38.929,,,,7.0
2020-07-31 17:26:38.933,,,,7.0
2020-07-31 17:26:38.937,,,,7.0
2020-07-31 17:26:38.941,,,,7.0
2020-07-31 17:26:38.945,,,,7.0
2020-07-31 17:26:38.949,,,,7.0
2020-07-31 17:26:38.953,,,,7.0
2020-07-31 17:26:38.957,,,,7.0
2020-07-31 17:26:38.960,,,,7.0
2020-07-31 17:26:38.964,,,,7.0
2020-07-31 17:26:38.968,,,,7.0
2020-07-31 17:26:38.972,,,,7.0
2020-07-31 17:26:38.976,,,,7.0
2020-07-31 17:26:38.980,,,,7.0
2020-07-31 17:26:38.984,,,,7.0
2020-07-31 17:26:38.988,,,,7.0
2020-07-31 17:26:38.992,,,,7.0
2020-07-31 17:26:38.996,,,,7.0
2020-07-31 17:26:39.000,,,,7.0
2020-07-31 17:26:39.003,,,,7.0
2020-07-31 17:26:39.007,,,,7.0
2020-07-31 17:26:39.011,,,,7.0
2020-07-31 17:26:39.015,,,,7.0
2020-07-31 17:26:39.019,,,,7.0
2020-07-31 17:26:39.023,,,,7.0
2020-07-31 17:26:39.027,,,,7.0
2020-07-31 17:26:39.031,,,,7.0
2020-07-31 17:26:39.035,,,,7.0
2020-07-31 17:26:39.039,,,,7.0
2020-07-31 17:26:39.042,,,,7.0
2020-07-31 17:26:39.046,,,,7.0
2020-07-31 17:26:39.050,,,,7.0
2020-07-31 17:26:39.054,,,,7.0
2020-07-31 17:26:39.058,,,,7.0
2020-07-31 17:26:39.062,,,,7.0
2020-07-31 17:26:39.066,,,,7.0
2020-07-31 17:26:39.070,,,,7.0
2020-07-31 17:26:39.074,,,,7.0
2020-07-31 17:26:39.078,,,,7.0
2020-07-31 17:26:39.082,,,,7.0
2020-07-31 17:26:39.085,,,,7.0
2020-07-31 17:26:39.089,,,,7.0
2020-07-31 17:26:39.093,,,,7.0
2020-07-31 17:26:39.097,,,,7.0
2020-07-31 17:26:39.101,,,,7.0
2020-07-31 17:26:39.105,,,,7.0
2020-07-31 17:26:39.109,,,,7.0
2020-07-31 17:26:39.113,,,,7.0
2020-07-31 17:26:39.117,,,,7.0
2020-07-31 17:26:39.121,,,,7.0
2020-07-31 17:26:39.125,,,,7.0
2020-07-31 17:26:39.128,,,,7.0
2020-07-31 17:26:39.132,,,,7.0
2020-07-31 17:26:39.136,,,,7.0
2020-07-31 17:26:39.140,,,,7.0
2020-07-31 17:26:39.144,,,,7.0
2020-07-31 17:26:39.148,,,,7.0
2020-07-31 17:26:39.152,,,,7.0
2020-07-31 17:26:39.156,,,,7.0
2020-07-31 17:26:39.160,,,,7.0
2020-07-31 17:26:39.164,,,,7.0
2020-07-31 17:26:39.167,,,,7.0
2020-07-31 17:26:39.171,,,,7.0
2020-07-31 17:26:39.175,,,,7.0
2020-07-31 17:26:39.179,,,,7.0
2020-07-31 17:26:39.183,,,,7.0
2020-07-31 17:26:39.187,,,,7.0
2020-07-31 17:26:39.191,,,,7.0
2020-07-31 17:26:39.195,,,,7.0
2020-07-31 17:26:39.199,,,,7.0
2020-07-31 17:26:39.203,,,,7.0
2020-07-31 17:26:39.207,,,,7.0
2020-07-31 17:26:39.210,,,,7.0
2020-07-31 17:26:39.214,,,,7.0
2020-07-31 17:26:39.218,,,,7.0
2020-07-31 17:26:39.222,,,,7.0
2020-07-31 17:26:39.226,,,,7.0
2020-07-31 17:26:39.230,,,,7.0
2020-07-31 17:26:39.234,,,,7.0
2020-07-31 17:26:39.238,,,,7.0
2020-07-31 17:26:39.242,,,,7.0
2020-07-31 17:26:39.246,,,,7.0
2020-07-31 17:26:39.250,,,,7.0
2020-07-31 17:26:39.253,,,,7.0
2020-07-31 17:26:39.257,,,,7.0
2020-07-31 17:26:39.261,,,,7.0
2020-07-31 17:26:39.265,,,,7.0
2020-07-31 17:26:39.269,,,,7.0
2020-07-31 17:26:39.273,,,,7.0
2020-07-31 17:26:39.277,,,,7.0
2020-07-31 17:26:39.281,,,,7.0
2020-07-31 17:26:39.285,,,,7.0
2020-07-31 17:26:39.289,,,,7.0
2020-07-31 17:26:39.292,,,,7.0
2020-07-31 17:26:39.296,,,,7.0
2020-07-31 17:26:39.300,,,,7.0
2020-07-31 17:26:39.304,,,,7.0
2020-07-31 17:26:39.308,,,,7.0
2020-07-31 17:26:39.312,,,,7.0
2020-07-31 17:26:39.316,,,,7.0
2020-07-31 17:26:39.320,,,,7.0
2020-07-31 17:26:39.324,,,,7.0
2020-07-31 17:26:39.328,,,,7.0
2020-07-31 17:26:39.332,,,,7.0
2020-07-31 17:26:39.335,,,,7.0
2020-07-31 17:26:39.339,,,,7.0
2020-07-31 17:26:39.343,,,,7.0
2020-07-31 17:26:39.347,,,,7.0
2020-07-31 17:26:39.351,,,,7.0
2020-07-31 17:26:39.355,,,,7.0
2020-07-31 17:26:39.359,,,,7.0
2020-07-31 17:26:39.363,,,,7.0
2020-07-31 17:26:39.367,,,,7.0
2020-07-31 17:26:39.371,,,,7.0
2020-07-31 17:26:39.375,,,,7.0
2020-07-31 17:26:39.378,,,,7.0
2020-07-31 17:26:39.382,,,,7.0
2020-07-31 17:26:39.386,,,,7.0
2020-07-31 17:26:39.390,,,,7.0
2020-07-31 17:26:39.394,,,,7.0
2020-07-31 17:26:39.398,,,,7.0
2020-07-31 17:26:39.402,,,,7.0
2020-07-31 17:26:39.406,,,,7.0
2020-07-31 17:26:39.410,,,,7.0
2020-07-31 17:26:39.414,,,,7.0
2020-07-31 17:26:39.417,,,,7.0
2020-07-31 17:26:39.421,,,,7.0
2020-07-31 17:26:39.425,,,,7.0
2020-07-31 17:26:39.429,,,,7.0
2020-07-31 17:26:39.433,,,,7.0
2020-07-31 17:26:39.437,,,,7.0
2020-07-31 17:26:39.441,,,,7.0
2020-07-31 17:26:39.445,,,,7.0
2020-07-31 17:26:39.449,,,,7.0
2020-07-31 17:26:39.453,,,,7.0
2020-07-31 17:26:39.457,,,,7.0
2020-07-31 17:26:39.460,,,,7.0
2020-07-31 17:26:39.464,,,,7.0
2020-07-31 17:26:39.468,,,,7.0
2020-07-31 17:26:39.472,,,,7.0
2020-07-31 17:26:39.476,,,,7.0
2020-07-31 17:26:39.480,,,,7.0
2020-07-31 17:26:39.484,,,,7.0
2020-07-31 17:26:39.488,,,,7.0
2020-07-31 17:26:39.492,,,,7.0
2020-07-31 17:26:39.496,,,,7.0
2020-07-31 17:26:39.500,,,,7.0
2020-07-31 17:26:39.503,,,,7.0
2020-07-31 17:26:39.507,,,,7.0
2020-07-31 17:26:39.511,,,,7.0
2020-07-31 17:26:39.515,,,,7.0
2020-07-31 17:26:39.519,,,,7.0
2020-07-31 17:26:39.523,,,,7.0
2020-07-31 17:26:39.527,,,,7.0
2020-07-31 17:26:39.531,,,,7.0
2020-07-31 17:26:39.535,,,,7.0
2020-07-31 17:26:39.539,,,,7.0
2020-07-31 17:26:39.542,,,,7.0
2020-07-31 17:26:39.546,,,,7.0
2020-07-31 17:26:39.550,,,,7.0
2020-07-31 17:26:39.554,,,,7.0
2020-07-31 17:26:39.558,,,,7.0
2020-07-31 17:26:39.562,,,,7.0
2020-07-31 17:26:39.566,,,,7.0
2020-07-31 17:26:39.570,,,,7.0
2020-07-31 17:26:39.574,,,,7.0
2020-07-31 17:26:39.578,,,,7.0
2020-07-31 17:26:39.582,,,,7.0
2020-07-31 17:26:39.585,,,,7.0
2020-07-31 17:26:39.589,,,,7.0
2020-07-31 17:26:39.593,,,,7.0
2020-07-31 17:26:39.597,,,,7.0
2020-07-31 17:26:39.601,,,,7.0
2020-07-31 17:26:39.605,,,,7.0
2020-07-31 17:26:39.609,,,,7.0
2020-07-31 17:26:39.613,,,,7.0
2020-07-31 17:26:39.617,,,,7.0
2020-07-31 17:26:39.621,,,,7.0
2020-07-31 17:26:39.625,,,,7.0
2020-07-31 17:26:39.628,,,,7.0
2020-07-31 17:26:39.632,,,,7.0
2020-07-31 17:26:39.636,,,,7.0
2020-07-31 17:26:39.640,,,,7.0
2020-07-31 17:26:39.644,,,,7.0
2020-07-31 17:26:39.648,,,,7.0
2020-07-31 17:26:39.652,,,,7.0
2020-07-31 17:26:39.656,,,,7.0
2020-07-31 17:26:39.660,,,,7.0
2020-07-31 17:26:39.664,,,,7.0
2020-07-31 17:26:39.667,,,,7.0
2020-07-31 17:26:39.671,,,,7.0
2020-07-31 17:26:39.675,,,,7.0
2020-07-31 17:26:39.679,,,,7.0
2020-07-31 17:26:39.683,,,,7.0
2020-07-31 17:26:39.687,,,,7.0
2020-07-31 17:26:39.691,,,,7.0
2020-07-31 17:26:39.695,,,,7.0
2020-07-31 17:26:39.699,,,,7.0
2020-07-31 17:26:39.703,,,,7.0
2020-07-31 17:26:39.707,,,,7.0
2020-07-31 17:26:39.710,,,,7.0
2020-07-31 17:26:39.714,,,,7.0
2020-07-31 17:26:39.718,,,,7.0
2020-07-31 17:26:39.722,,,,7.0
2020-07-31 17:26:39.726,,,,7.0
2020-07-31 17:26:39.730,,,,7.0
2020-07-31 17:26:39.734,,,,7.0
2020-07-31 17:26:39.738,,,,7.0
2020-07-31 17:26:39.742,,,,7.0
2020-07-31 17:26:39.746,,,,7.0
2020-07-31 17:26:39.750,,,,7.0
2020-07-31 17:26:39.753,,,,7.0
2020-07-31 17:26:39.757,,,,7.0
2020-07-31 17:26:39.761,,,,7.0
2020-07-31 17:26:39.765,,,,7.0
2020-07-31 17:26:39.769,,,,7.0
2020-07-31 17:26:39.773,,,,7.0
2020-07-31 17:26:39.777,,,,7.0
2020-07-31 17:26:39.781,,,,7.0
2020-07-31 17:26:39.785,,,,7.0
2020-07-31 17:26:39.789,,,,7.0
2020-07-31 17:26:39.792,,,,7.0
2020-07-31 17:26:39.796,,,,7.0
2020-07-31 17:26:39.800,,,,7.0
2020-07-31 17:26:39.804,,,,7.0
2020-07-31 17:26:39.808,,,,7.0
2020-07-31 17:26:39.812,,,,7.0
2020-07-31 17:26:39.816,,,,7.0
2020-07-31 17:26:39.820,,,,7.0
2020-07-31 17:26:39.824,,,,7.0
2020-07-31 17:26:39.828,,,,7.0
2020-07-31 17:26:39.832,,,,7.0
2020-07-31 17:26:39.835,,,,7.0
2020-07-31 17:26:39.839,,,,7.0
2020-07-31 17:26:39.843,,,,7.0
2020-07-31 17:26:39.847,,,,7.0
2020-07-31 17:26:39.851,,,,7.0
2020-07-31 17:26:39.855,,,,7.0
2020-07-31 17:26:39.859,,,,7.0
2020-07-31 17:26:39.863,,,,7.0
2020-07-31 17:26:39.867,,,,7.0
2020-07-31 17:26:39.871,,,,7.0
2020-07-31 17:26:39.875,,,,7.0
2020-07-31 17:26:39.878,,,,7.0
2020-07-31 17:26:39.882,,,,7.0
2020-07-31 17:26:39.886,,,,7.0
2020-07-31 17:26:39.890,,,,7.0
2020-07-31 17:26:39.894,,,,7.0
2020-07-31 17:26:39.898,,,,7.0
2020-07-31 17:26:39.902,,,,7.0
2020-07-31 17:26:39.906,,,,7.0
2020-07-31 17:26:39.910,,,,7.0
2020-07-31 17:26:39.914,,,,7.0
2020-07-31 17:26:39.917,,,,7.0
2020-07-31 17:26:39.921,,,,7.0
2020-07-31 17:26:39.925,,,,7.0
2020-07-31 17:26:39.929,,,,7.0
2020-07-31 17:26:39.933,,,,7.0
2020-07-31 17:26:39.937,,,,7.0
2020-07-31 17:26:39.941,,,,7.0
2020-07-31 17:26:39.945,,,,7.0
2020-07-31 17:26:39.949,,,,7.0
2020-07-31 17:26:39.953,,,,7.0
2020-07-31 17:26:39.957,,,,7.0
2020-07-31 17:26:39.960,,,,7.0
2020-07-31 17:26:39.964,,,,7.0
2020-07-31 17:26:39.968,,,,7.0
2020-07-31 17:26:39.972,,,,7.0
2020-07-31 17:26:39.976,,,,7.0
2020-07-31 17:26:39.980,,,,7.0
2020-07-31 17:26:39.984,,,,7.0
2020-07-31 17:26:39.988,,,,7.0
2020-07-31 17:26:39.992,,,,7.0
2020-07-31 17:26:39.996,,,,7.0
2020-07-31 17:26:40.000,,,,7.0
2020-07-31 17:26:40.003,,,,7.0
2020-07-31 17:26:40.007,,,,7.0
2020-07-31 17:26:40.011,,,,7.0
2020-07-31 17:26:40.015,,,,7.0
2020-07-31 17:26:40.019,,,,7.0
2020-07-31 17:26:40.023,,,,7.0
2020-07-31 17:26:40.027,,,,7.0
2020-07-31 17:26:40.031,,,,7.0
2020-07-31 17:26:40.035,,,,7.0
2020-07-31 17:26:40.039,,,,7.0
2020-07-31 17:26:40.042,,,,7.0
2020-07-31 17:26:40.046,,,,7.0
2020-07-31 17:26:40.050,,,,7.0
2020-07-31 17:26:40.054,,,,7.0
2020-07-31 17:26:40.058,,,,7.0
2020-07-31 17:26:40.062,,,,7.0
2020-07-31 17:26:40.066,,,,7.0
2020-07-31 17:26:40.070,,,,7.0
2020-07-31 17:26:40.074,,,,7.0
2020-07-31 17:26:40.078,,,,7.0
2020-07-31 17:26:40.082,,,,7.0
2020-07-31 17:26:40.085,,,,7.0
2020-07-31 17:26:40.089,,,,7.0
2020-07-31 17:26:40.093,,,,7.0
2020-07-31 17:26:40.097,,,,7.0
2020-07-31 17:26:40.101,,,,7.0
2020-07-31 17:26:40.105,,,,7.0
2020-07-31 17:26:40.109,,,,7.0
2020-07-31 17:26:40.113,,,,7.0
2020-07-31 17:26:40.117,,,,7.0
2020-07-31 17:26:40.121,,,,7.0
2020-07-31 17:26:40.125,,,,7.0
2020-07-31 17:26:40.128,,,,7.0
2020-07-31 17:26:40.132,,,,7.0
2020-07-31 17:26:40.136,,,,7.0
2020-07-31 17:26:40.140,,,,7.0
2020-07-31 17:26:40.144,,,,7.0
2020-07-31 17:26:40.148,,,,7.0
2020-07-31 17:26:40.152,,,,7.0
2020-07-31 17:26:40.156,,,,7.0
2020-07-31 17:26:40.160,,,,7.0
2020-07-31 17:26:40.164,,,,7.0
2020-07-31 17:26:40.167,,,,7.0
2020-07-31 17:26:40.171,,,,7.0
2020-07-31 17:26:40.175,,,,7.0
2020-07-31 17:26:40.179,,,,7.0
2020-07-31 17:26:40.183,,,,7.0
2020-07-31 17:26:40.187,,,,7.0
2020-07-31 17:26:40.191,,,,7.0
2020-07-31 17:26:40.195,,,,7.0
2020-07-31 17:26:40.199,,,,7.0
2020-07-31 17:26:40.203,,,,7.0
2020-07-31 17:26:40.207,,,,7.0
2020-07-31 17:26:40.210,,,,7.0
2020-07-31 17:26:40.214,,,,7.0
2020-07-31 17:26:40.218,,,,7.0
2020-07-31 17:26:40.222,,,,7.0
2020-07-31 17:26:40.226,,,,7.0
2020-07-31 17:26:40.230,,,,7.0
2020-07-31 17:26:40.234,,,,7.0
2020-07-31 17:26:40.238,,,,7.0
2020-07-31 17:26:40.242,,,,7.0
2020-07-31 17:26:40.246,,,,7.0
2020-07-31 17:26:40.250,,,,7.0
2020-07-31 17:26:40.253,,,,7.0
2020-07-31 17:26:40.257,,,,7.0
2020-07-31 17:26:40.261,,,,7.0
2020-07-31 17:26:40.265,,,,7.0
2020-07-31 17:26:40.269,,,,7.0
2020-07-31 17:26:40.273,,,,7.0
2020-07-31 17:26:40.277,,,,7.0
2020-07-31 17:26:40.281,,,,7.0
2020-07-31 17:26:40.285,,,,7.0
2020-07-31 17:26:40.289,,,,7.0
2020-07-31 17:26:40.292,,,,7.0
2020-07-31 17:26:40.296,,,,7.0
2020-07-31 17:26:40.300,,,,7.0
2020-07-31 17:26:40.304,,,,7.0
2020-07-31 17:26:40.308,,,,7.0
2020-07-31 17:26:40.312,,,,7.0
2020-07-31 17:26:40.316,,,,7.0
2020-07-31 17:26:40.320,,,,7.0
2020-07-31 17:26:40.324,,,,7.0
2020-07-31 17:26:40.328,,,,7.0
2020-07-31 17:26:40.332,,,,7.0
2020-07-31 17:26:40.335,,,,7.0
2020-07-31 17:26:40.339,,,,7.0
2020-07-31 17:26:40.343,,,,7.0
2020-07-31 17:26:40.347,,,,7.0
2020-07-31 17:26:40.351,,,,7.0
2020-07-31 17:26:40.355,,,,7.0
2020-07-31 17:26:40.359,,,,7.0
2020-07-31 17:26:40.363,,,,7.0
2020-07-31 17:26:40.367,,,,7.0
2020-07-31 17:26:40.371,,,,7.0
2020-07-31 17:26:40.375,,,,7.0
2020-07-31 17:26:40.378,,,,7.0
2020-07-31 17:26:40.382,,,,7.0
2020-07-31 17:26:40.386,,,,7.0
2020-07-31 17:26:40.390,,,,7.0
2020-07-31 17:26:40.394,,,,7.0
2020-07-31 17:26:40.398,,,,7.0
2020-07-31 17:26:40.402,,,,7.0
2020-07-31 17:26:40.406,,,,7.0
2020-07-31 17:26:40.410,,,,7.0
2020-07-31 17:26:40.414,,,,7.0
2020-07-31 17:26:40.417,,,,7.0
2020-07-31 17:26:40.421,,,,7.0
2020-07-31 17:26:40.425,,,,7.0
2020-07-31 17:26:40.429,,,,7.0
2020-07-31 17:26:40.433,,,,7.0
2020-07-31 17:26:40.437,,,,7.0
2020-07-31 17:26:40.441,,,,7.0
2020-07-31 17:26:40.445,,,,7.0
2020-07-31 17:26:40.449,,,,7.0
2020-07-31 17:26:40.453,,,,7.0
2020-07-31 17:26:40.457,,,,7.0
2020-07-31 17:26:40.460,,,,7.0
2020-07-31 17:26:40.464,,,,7.0
2020-07-31 17:26:40.468,,,,7.0
2020-07-31 17:26:40.472,,,,7.0
2020-07-31 17:26:40.476,,,,7.0
2020-07-31 17:26:40.480,,,,7.0
2020-07-31 17:26:40.484,,,,7.0
2020-07-31 17:26:40.488,,,,7.0
2020-07-31 17:26:40.492,,,,7.0
2020-07-31 17:26:40.496,,,,7.0
2020-07-31 17:26:40.500,,,,7.0
2020-07-31 17:26:40.503,,,,7.0
2020-07-31 17:26:40.507,,,,7.0
2020-07-31 17:26:40.511,,,,7.0
2020-07-31 17:26:40.515,,,,7.0
2020-07-31 17:26:40.519,,,,7.0
2020-07-31 17:26:40.523,,,,7.0
2020-07-31 17:26:40.527,,,,7.0
2020-07-31 17:26:40.531,,,,7.0
2020-07-31 17:26:40.535,,,,7.0
2020-07-31 17:26:40.539,,,,7.0
2020-07-31 17:26:40.542,,,,7.0
2020-07-31 17:26:40.546,,,,7.0
2020-07-31 17:26:40.550,,,,7.0
2020-07-31 17:26:40.554,,,,7.0
2020-07-31 17:26:40.558,,,,7.0
2020-07-31 17:26:40.562,,,,7.0
2020-07-31 17:26:40.566,,,,7.0
2020-07-31 17:26:40.570,,,,7.0
2020-07-31 17:26:40.574,,,,7.0
2020-07-31 17:26:40.578,,,,7.0
2020-07-31 17:26:40.582,,,,7.0
2020-07-31 17:26:40.585,,,,7.0
2020-07-31 17:26:40.589,,,,7.0
2020-07-31 17:26:40.593,,,,7.0
2020-07-31 17:26:40.597,,,,7.0
2020-07-31 17:26:40.601,,,,7.0
2020-07-31 17:26:40.605,,,,7.0
2020-07-31 17:26:40.609,,,,7.0
2020-07-31 17:26:40.613,,,,7.0
2020-07-31 17:26:40.617,,,,7.0
2020-07-31 17:26:40.621,,,,7.0
2020-07-31 17:26:40.625,,,,7.0
2020-07-31 17:26:40.628,,,,7.0
2020-07-31 17:26:40.632,,,,7.0
2020-07-31 17:26:40.636,,,,7.0
2020-07-31 17:26:40.640,,,,7.0
2020-07-31 17:26:40.644,,,,7.0
2020-07-31 17:26:40.648,,,,7.0
2020-07-31 17:26:40.652,,,,7.0
2020-07-31 17:26:40.656,,,,7.0
2020-07-31 17:26:40.660,,,,7.0
2020-07-31 17:26:40.664,,,,7.0
2020-07-31 17:26:40.667,,,,7.0
2020-07-31 17:26:40.671,,,,7.0
2020-07-31 17:26:40.675,,,,7.0
2020-07-31 17:26:40.679,,,,7.0
2020-07-31 17:26:40.683,,,,7.0
2020-07-31 17:26:40.687,,,,7.0
2020-07-31 17:26:40.691,,,,7.0
2020-07-31 17:26:40.695,,,,7.0
2020-07-31 17:26:40.699,,,,7.0
2020-07-31 17:26:40.703,,,,7.0
2020-07-31 17:26:40.707,,,,7.0
2020-07-31 17:26:40.710,,,,7.0
2020-07-31 17:26:40.714,,,,7.0
2020-07-31 17:26:40.718,,,,7.0
2020-07-31 17:26:40.722,,,,7.0
2020-07-31 17:26:40.726,,,,7.0
2020-07-31 17:26:40.730,,,,7.0
2020-07-31 17:26:40.734,,,,7.0
2020-07-31 17:26:40.738,,,,7.0
2020-07-31 17:26:40.742,,,,7.0
2020-07-31 17:26:40.746,,,,7.0
2020-07-31 17:26:40.750,,,,7.0
2020-07-31 17:26:40.753,,,,7.0
2020-07-31 17:26:40.757,,,,7.0
2020-07-31 17:26:40.761,,,,7.0
2020-07-31 17:26:40.765,,,,7.0
2020-07-31 17:26:40.769,,,,7.0
2020-07-31 17:26:40.773,,,,7.0
2020-07-31 17:26:40.777,,,,7.0
2020-07-31 17:26:40.781,,,,7.0
2020-07-31 17:26:40.785,,,,7.0
2020-07-31 17:26:40.789,,,,7.0
2020-07-31 17:26:40.792,,,,7.0
2020-07-31 17:26:40.796,,,,7.0
2020-07-31 17:26:40.800,,,,7.0
2020-07-31 17:26:40.804,,,,7.0
2020-07-31 17:26:40.808,,,,7.0
2020-07-31 17:26:40.812,,,,7.0
2020-07-31 17:26:40.816,,,,7.0
2020-07-31 17:26:40.820,,,,7.0
2020-07-31 17:26:40.824,,,,7.0
2020-07-31 17:26:40.828,,,,7.0
2020-07-31 17:26:40.832,,,,7.0
2020-07-31 17:26:40.835,,,,7.0
2020-07-31 17:26:40.839,,,,7.0
2020-07-31 17:26:40.843,,,,7.0
2020-07-31 17:26:40.847,,,,7.0
2020-07-31 17:26:40.851,,,,7.0
2020-07-31 17:26:40.855,,,,7.0
2020-07-31 17:26:40.859,,,,7.0
2020-07-31 17:26:40.863,,,,7.0
2020-07-31 17:26:40.867,,,,7.0
2020-07-31 17:26:40.871,,,,7.0
2020-07-31 17:26:40.875,,,,7.0
2020-07-31 17:26:40.878,,,,7.0
2020-07-31 17:26:40.882,,,,7.0
2020-07-31 17:26:40.886,,,,7.0
2020-07-31 17:26:40.890,,,,7.0
2020-07-31 17:26:40.894,,,,7.0
2020-07-31 17:26:40.898,,,,7.0
2020-07-31 17:26:40.902,,,,7.0
2020-07-31 17:26:40.906,,,,7.0
2020-07-31 17:26:40.910,,,,7.0
2020-07-31 17:26:40.914,,,,7.0
2020-07-31 17:26:40.917,,,,7.0
2020-07-31 17:26:40.921,,,,7.0
2020-07-31 17:26:40.925,,,,7.0
2020-07-31 17:26:40.929,,,,7.0
2020-07-31 17:26:40.933,,,,7.0
2020-07-31 17:26:40.937,,,,7.0
2020-07-31 17:26:40.941,,,,7.0
2020-07-31 17:26:40.945,,,,7.0
2020-07-31 17:26:40.949,,,,7.0
2020-07-31 17:26:40.953,,,,7.0
2020-07-31 17:26:40.957,,,,7.0
2020-07-31 17:26:40.960,,,,7.0
2020-07-31 17:26:40.964,,,,7.0
2020-07-31 17:26:40.968,,,,7.0
2020-07-31 17:26:40.972,,,,7.0
2020-07-31 17:26:40.976,,,,7.0
2020-07-31 17:26:40.980,,,,7.0
2020-07-31 17:26:40.984,,,,7.0
2020-07-31 17:26:40.988,,,,7.0
2020-07-31 17:26:40.992,,,,7.0
2020-07-31 17:26:40.996,,,,7.0
2020-07-31 17:26:41.000,,,,7.0
2020-07-31 17:26:41.003,,,,7.0
2020-07-31 17:26:41.007,,,,7.0
2020-07-31 17:26:41.011,,,,7.0
2020-07-31 17:26:41.015,,,,7.0
2020-07-31 17:26:41.019,,,,7.0
2020-07-31 17:26:41.023,,,,7.0
2020-07-31 17:26:41.027,,,,7.0
2020-07-31 17:26:41.031,,,,7.0
2020-07-31 17:26:41.035,,,,7.0
2020-07-31 17:26:41.039,,,,7.0
2020-07-31 17:26:41.042,,,,7.0
2020-07-31 17:26:41.046,,,,7.0
2020-07-31 17:26:41.050,,,,7.0
2020-07-31 17:26:41.054,,,,7.0
2020-07-31 17:26:41.058,,,,7.0
2020-07-31 17:26:41.062,,,,7.0
2020-07-31 17:26:41.066,,,,7.0
2020-07-31 17:26:41.070,,,,7.0
2020-07-31 17:26:41.074,,,,7.0
2020-07-31 17:26:41.078,,,,7.0
2020-07-31 17:26:41.082,,,,7.0
2020-07-31 17:26:41.085,,,,7.0
2020-07-31 17:26:41.089,,,,7.0
2020-07-31 17:26:41.093,,,,7.0
2020-07-31 17:26:41.097,,,,7.0
2020-07-31 17:26:41.101,,,,7.0
2020-07-31 17:26:41.105,,,,7.0
2020-07-31 17:26:41.109,,,,7.0
2020-07-31 17:26:41.113,,,,7.0
2020-07-31 17:26:41.117,,,,7.0
2020-07-31 17:26:41.121,,,,7.0
2020-07-31 17:26:41.125,,,,7.0
2020-07-31 17:26:41.128,,,,7.0
2020-07-31 17:26:41.132,,,,7.0
2020-07-31 17:26:41.136,,,,7.0
2020-07-31 17:26:41.140,,,,7.0
2020-07-31 17:26:41.144,,,,7.0
2020-07-31 17:26:41.148,,,,7.0
2020-07-31 17:26:41.152,,,,7.0
2020-07-31 17:26:41.156,,,,7.0
2020-07-31 17:26:41.160,,,,7.0
2020-07-31 17:26:41.164,,,,7.0
2020-07-31 17:26:41.167,,,,7.0
2020-07-31 17:26:41.171,,,,7.0
2020-07-31 17:26:41.175,,,,7.0
2020-07-31 17:26:41.179,,,,7.0
2020-07-31 17:26:41.183,,,,7.0
2020-07-31 17:26:41.187,,,,7.0
2020-07-31 17:26:41.191,,,,7.0
2020-07-31 17:26:41.195,,,,7.0
2020-07-31 17:26:41.199,,,,7.0
2020-07-31 17:26:41.203,,,,7.0
2020-07-31 17:26:41.207,,,,7.0
2020-07-31 17:26:41.210,,,,7.0
2020-07-31 17:26:41.214,,,,7.0
2020-07-31 17:26:41.218,,,,7.0
2020-07-31 17:26:41.222,,,,7.0
2020-07-31 17:26:41.226,,,,7.0
2020-07-31 17:26:41.230,,,,7.0
2020-07-31 17:26:41.234,,,,7.0
2020-07-31 17:26:41.238,,,,7.0
2020-07-31 17:26:41.242,,,,7.0
2020-07-31 17:26:41.246,,,,7.0
2020-07-31 17:26:41.250,,,,7.0
2020-07-31 17:26:41.253,,,,7.0
2020-07-31 17:26:41.257,,,,7.0
2020-07-31 17:26:41.261,,,,7.0
2020-07-31 17:26:41.265,,,,7.0
2020-07-31 17:26:41.269,,,,7.0
2020-07-31 17:26:41.273,,,,7.0
2020-07-31 17:26:41.277,,,,7.0
2020-07-31 17:26:41.281,,,,7.0
2020-07-31 17:26:41.285,,,,7.0
2020-07-31 17:26:41.289,,,,7.0
2020-07-31 17:26:41.292,,,,7.0
2020-07-31 17:26:41.296,,,,7.0
2020-07-31 17:26:41.300,,,,7.0
2020-07-31 17:26:41.304,,,,7.0
2020-07-31 17:26:41.308,,,,7.0
2020-07-31 17:26:41.312,,,,7.0
2020-07-31 17:26:41.316,,,,7.0
2020-07-31 17:26:41.320,,,,7.0
2020-07-31 17:26:41.324,,,,7.0
2020-07-31 17:26:41.328,,,,7.0
2020-07-31 17:26:41.332,,,,7.0
2020-07-31 17:26:41.335,,,,7.0
2020-07-31 17:26:41.339,,,,7.0
2020-07-31 17:26:41.343,,,,7.0
2020-07-31 17:26:41.347,,,,7.0
2020-07-31 17:26:41.351,,,,7.0
2020-07-31 17:26:41.355,,,,7.0
2020-07-31 17:26:41.359,,,,7.0
2020-07-31 17:26:41.363,,,,7.0
2020-07-31 17:26:41.367,,,,7.0
2020-07-31 17:26:41.371,,,,7.0
2020-07-31 17:26:41.375,,,,7.0
2020-07-31 17:26:41.378,,,,7.0
2020-07-31 17:26:41.382,,,,7.0
2020-07-31 17:26:41.386,,,,7.0
2020-07-31 17:26:41.390,,,,7.0
2020-07-31 17:26:41.394,,,,7.0
2020-07-31 17:26:41.398,,,,7.0
2020-07-31 17:26:41.402,,,,7.0
2020-07-31 17:26:41.406,,,,7.0
2020-07-31 17:26:41.410,,,,7.0
2020-07-31 17:26:41.414,,,,7.0
2020-07-31 17:26:41.417,,,,7.0
2020-07-31 17:26:41.421,,,,7.0
2020-07-31 17:26:41.425,,,,7.0
2020-07-31 17:26:41.429,,,,7.0
2020-07-31 17:26:41.433,,,,7.0
2020-07-31 17:26:41.437,,,,7.0
2020-07-31 17:26:41.441,,,,7.0
2020-07-31 17:26:41.445,,,,7.0
2020-07-31 17:26:41.449,,,,7.0
2020-07-31 17:26:41.453,,,,7.0
2020-07-31 17:26:41.457,,,,7.0
2020-07-31 17:26:41.460,,,,7.0
2020-07-31 17:26:41.464,,,,7.0
2020-07-31 17:26:41.468,,,,7.0
2020-07-31 17:26:41.472,,,,7.0
2020-07-31 17:26:41.476,,,,7.0
2020-07-31 17:26:41.480,,,,7.0
2020-07-31 17:26:41.484,,,,7.0
2020-07-31 17:26:41.488,,,,7.0
2020-07-31 17:26:41.492,,,,7.0
2020-07-31 17:26:41.496,,,,7.0
2020-07-31 17:26:41.500,,,,7.0
2020-07-31 17:26:41.503,,,,7.0
2020-07-31 17:26:41.507,,,,7.0
2020-07-31 17:26:41.511,,,,7.0
2020-07-31 17:26:41.515,,,,7.0
2020-07-31 17:26:41.519,,,,7.0
2020-07-31 17:26:41.523,,,,7.0
2020-07-31 17:26:41.527,,,,7.0
2020-07-31 17:26:41.531,,,,7.0
2020-07-31 17:26:41.535,,,,7.0
2020-07-31 17:26:41.539,,,,7.0
2020-07-31 17:26:41.542,,,,7.0
2020-07-31 17:26:41.546,,,,7.0
2020-07-31 17:26:41.550,,,,7.0
2020-07-31 17:26:41.554,,,,7.0
2020-07-31 17:26:41.558,,,,7.0
2020-07-31 17:26:41.562,,,,7.0
2020-07-31 17:26:41.566,,,,7.0
2020-07-31 17:26:41.570,,,,7.0
2020-07-31 17:26:41.574,,,,7.0
2020-07-31 17:26:41.578,,,,7.0
2020-07-31 17:26:41.582,,,,7.0
2020-07-31 17:26:41.585,,,,7.0
2020-07-31 17:26:41.589,,,,7.0
2020-07-31 17:26:41.593,,,,7.0
2020-07-31 17:26:41.597,,,,7.0
2020-07-31 17:26:41.601,,,,7.0
2020-07-31 17:26:41.605,,,,7.0
2020-07-31 17:26:41.609,,,,7.0
2020-07-31 17:26:41.613,,,,7.0
2020-07-31 17:26:41.617,,,,7.0
2020-07-31 17:26:41.621,,,,7.0
2020-07-31 17:26:41.625,,,,7.0
2020-07-31 17:26:41.628,,,,7.0
2020-07-31 17:26:41.632,,,,7.0
2020-07-31 17:26:41.636,,,,7.0
2020-07-31 17:26:41.640,,,,7.0
2020-07-31 17:26:41.644,,,,7.0
2020-07-31 17:26:41.648,,,,7.0
2020-07-31 17:26:41.652,,,,7.0
2020-07-31 17:26:41.656,,,,7.0
2020-07-31 17:26:41.660,,,,7.0
2020-07-31 17:26:41.664,,,,7.0
2020-07-31 17:26:41.667,,,,7.0
2020-07-31 17:26:41.671,,,,7.0
2020-07-31 17:26:41.675,,,,7.0
2020-07-31 17:26:41.679,,,,7.0
2020-07-31 17:26:41.683,,,,7.0
2020-07-31 17:26:41.687,,,,7.0
2020-07-31 17:26:41.691,,,,7.0
2020-07-31 17:26:41.695,,,,7.0
2020-07-31 17:26:41.699,,,,7.0
2020-07-31 17:26:41.703,,,,7.0
2020-07-31 17:26:41.707,,,,7.0
2020-07-31 17:26:41.710,,,,7.0
2020-07-31 17:26:41.714,,,,7.0
2020-07-31 17:26:41.718,,,,7.0
2020-07-31 17:26:41.722,,,,7.0
2020-07-31 17:26:41.726,,,,7.0
2020-07-31 17:26:41.730,,,,7.0
2020-07-31 17:26:41.734,,,,7.0
2020-07-31 17:26:41.738,,,,7.0
2020-07-31 17:26:41.742,,,,7.0
2020-07-31 17:26:41.746,,,,7.0
2020-07-31 17:26:41.750,,,,7.0
2020-07-31 17:26:41.753,,,,7.0
2020-07-31 17:26:41.757,,,,7.0
2020-07-31 17:26:41.761,,,,7.0
2020-07-31 17:26:41.765,,,,7.0
2020-07-31 17:26:41.769,,,,7.0
2020-07-31 17:26:41.773,,,,7.0
2020-07-31 17:26:41.777,,,,7.0
2020-07-31 17:26:41.781,,,,7.0
2020-07-31 17:26:41.785,,,,7.0
2020-07-31 17:26:41.789,,,,7.0
2020-07-31 17:26:41.792,,,,7.0
2020-07-31 17:26:41.796,,,,7.0
2020-07-31 17:26:41.800,,,,7.0
2020-07-31 17:26:41.804,,,,7.0
2020-07-31 17:26:41.808,,,,7.0
2020-07-31 17:26:41.812,,,,7.0
2020-07-31 17:26:41.816,,,,7.0
2020-07-31 17:26:41.820,,,,7.0
2020-07-31 17:26:41.824,,,,7.0
2020-07-31 17:26:41.828,,,,7.0
2020-07-31 17:26:41.832,,,,7.0
2020-07-31 17:26:41.835,,,,7.0
2020-07-31 17:26:41.839,,,,7.0
2020-07-31 17:26:41.843,,,,7.0
2020-07-31 17:26:41.847,,,,7.0
2020-07-31 17:26:41.851,,,,7.0
2020-07-31 17:26:41.855,,,,7.0
2020-07-31 17:26:41.859,,,,7.0
2020-07-31 17:26:41.863,,,,7.0
2020-07-31 17:26:41.867,,,,7.0
2020-07-31 17:26:41.871,,,,7.0
2020-07-31 17:26:41.875,,,,7.0
2020-07-31 17:26:41.878,,,,7.0
2020-07-31 17:26:41.882,,,,7.0
2020-07-31 17:26:41.886,,,,7.0
2020-07-31 17:26:41.890,,,,7.0
2020-07-31 17:26:41.894,,,,7.0
2020-07-31 17:26:41.898,,,,7.0
2020-07-31 17:26:41.902,,,,7.0
2020-07-31 17:26:41.906,,,,7.0
2020-07-31 17:26:41.910,,,,7.0
2020-07-31 17:26:41.914,,,,7.0
2020-07-31 17:26:41.917,,,,7.0
2020-07-31 17:26:41.921,,,,7.0
2020-07-31 17:26:41.925,,,,7.0
2020-07-31 17:26:41.929,,,,7.0
2020-07-31 17:26:41.933,,,,7.0
2020-07-31 17:26:41.937,,,,7.0
2020-07-31 17:26:41.941,,,,7.0
2020-07-31 17:26:41.945,,,,7.0
2020-07-31 17:26:41.949,,,,7.0
2020-07-31 17:26:41.953,,,,7.0
2020-07-31 17:26:41.957,,,,7.0
2020-07-31 17:26:41.960,,,,7.0
2020-07-31 17:26:41.964,,,,7.0
2020-07-31 17:26:41.968,,,,7.0
2020-07-31 17:26:41.972,,,,7.0
2020-07-31 17:26:41.976,,,,7.0
2020-07-31 17:26:41.980,,,,7.0
2020-07-31 17:26:41.984,,,,7.0
2020-07-31 17:26:41.988,,,,7.0
2020-07-31 17:26:41.992,,,,7.0
2020-07-31 17:26:41.996,,,,7.0
2020-07-31 17:26:42.000,,,,7.0
2020-07-31 17:26:42.003,,,,7.0
2020-07-31 17:26:42.007,,,,7.0
2020-07-31 17:26:42.011,,,,7.0
2020-07-31 17:26:42.015,,,,7.0
2020-07-31 17:26:42.019,,,,7.0
2020-07-31 17:26:42.023,,,,7.0
2020-07-31 17:26:42.027,,,,7.0
2020-07-31 17:26:42.031,,,,7.0
2020-07-31 17:26:42.035,,,,7.0
2020-07-31 17:26:42.039,,,,7.0
2020-07-31 17:26:42.042,,,,7.0
2020-07-31 17:26:42.046,,,,7.0
2020-07-31 17:26:42.050,,,,7.0
2020-07-31 17:26:42.054,,,,7.0
2020-07-31 17:26:42.058,,,,7.0
2020-07-31 17:26:42.062,,,,7.0
2020-07-31 17:26:42.066,,,,7.0
2020-07-31 17:26:42.070,,,,7.0
2020-07-31 17:26:42.074,,,,7.0
2020-07-31 17:26:42.078,,,,7.0
2020-07-31 17:26:42.082,,,,7.0
2020-07-31 17:26:42.085,,,,7.0
2020-07-31 17:26:42.089,,,,7.0
2020-07-31 17:26:42.093,,,,7.0
2020-07-31 17:26:42.097,,,,7.0
2020-07-31 17:26:42.101,,,,7.0
2020-07-31 17:26:42.105,,,,7.0
2020-07-31 17:26:42.109,,,,7.0
2020-07-31 17:26:42.113,,,,7.0
2020-07-31 17:26:42.117,,,,7.0
2020-07-31 17:26:42.121,,,,7.0
2020-07-31 17:26:42.125,,,,7.0
2020-07-31 17:26:42.128,,,,7.0
2020-07-31 17:26:42.132,,,,7.0
2020-07-31 17:26:42.136,,,,7.0
2020-07-31 17:26:42.140,,,,7.0
2020-07-31 17:26:42.144,,,,7.0
2020-07-31 17:26:42.148,,,,7.0
2020-07-31 17:26:42.152,,,,7.0
2020-07-31 17:26:42.156,,,,7.0
2020-07-31 17:26:42.160,,,,7.0
2020-07-31 17:26:42.164,,,,7.0
2020-07-31 17:26:42.167,,,,7.0
2020-07-31 17:26:42.171,,,,7.0
2020-07-31 17:26:42.175,,,,7.0
2020-07-31 17:26:42.179,,,,7.0
2020-07-31 17:26:42.183,,,,7.0
2020-07-31 17:26:42.187,,,,7.0
2020-07-31 17:26:42.191,,,,7.0
2020-07-31 17:26:42.195,,,,7.0
2020-07-31 17:26:42.199,,,,7.0
2020-07-31 17:26:42.203,,,,7.0
2020-07-31 17:26:42.207,,,,7.0
2020-07-31 17:26:42.210,,,,7.0
2020-07-31 17:26:42.214,,,,7.0
2020-07-31 17:26:42.218,,,,7.0
2020-07-31 17:26:42.222,,,,7.0
2020-07-31 17:26:42.226,,,,7.0
2020-07-31 17:26:42.230,,,,7.0
2020-07-31 17:26:42.234,,,,7.0
2020-07-31 17:26:42.238,,,,7.0
2020-07-31 17:26:42.242,,,,7.0
2020-07-31 17:26:42.246,,,,7.0
2020-07-31 17:26:42.250,,,,7.0
2020-07-31 17:26:42.253,,,,7.0
2020-07-31 17:26:42.257,,,,7.0
2020-07-31 17:26:42.261,,,,7.0
2020-07-31 17:26:42.265,,,,7.0
2020-07-31 17:26:42.269,,,,7.0
2020-07-31 17:26:42.273,,,,7.0
2020-07-31 17:26:42.277,,,,7.0
2020-07-31 17:26:42.281,,,,7.0
2020-07-31 17:26:42.285,,,,7.0
2020-07-31 17:26:42.289,,,,7.0
2020-07-31 17:26:42.292,,,,7.0
2020-07-31 17:26:42.296,,,,7.0
2020-07-31 17:26:42.300,,,,7.0
2020-07-31 17:26:42.304,,,,7.0
2020-07-31 17:26:42.308,,,,7.0
2020-07-31 17:26:42.312,,,,7.0
2020-07-31 17:26:42.316,,,,7.0
2020-07-31 17:26:42.320,,,,7.0
2020-07-31 17:26:42.324,,,,7.0
2020-07-31 17:26:42.328,,,,7.0
2020-07-31 17:26:42.332,,,,7.0
2020-07-31 17:26:42.335,,,,7.0
2020-07-31 17:26:42.339,,,,7.0
2020-07-31 17:26:42.343,,,,7.0
2020-07-31 17:26:42.347,,,,7.0
2020-07-31 17:26:42.351,,,,7.0
2020-07-31 17:26:42.355,,,,7.0
2020-07-31 17:26:42.359,,,,7.0
2020-07-31 17:26:42.363,,,,7.0
2020-07-31 17:26:42.367,,,,7.0
2020-07-31 17:26:42.371,,,,7.0
2020-07-31 17:26:42.375,,,,7.0
2020-07-31 17:26:42.378,,,,7.0
2020-07-31 17:26:42.382,,,,7.0
2020-07-31 17:26:42.386,,,,7.0
2020-07-31 17:26:42.390,,,,7.0
2020-07-31 17:26:42.394,,,,7.0
2020-07-31 17:26:42.398,,,,7.0
2020-07-31 17:26:42.402,,,,7.0
2020-07-31 17:26:42.406,,,,7.0
2020-07-31 17:26:42.410,,,,7.0
2020-07-31 17:26:42.414,,,,7.0
2020-07-31 17:26:42.417,,,,7.0
2020-07-31 17:26:42.421,,,,7.0
2020-07-31 17:26:42.425,,,,7.0
2020-07-31 17:26:42.429,,,,7.0
2020-07-31 17:26:42.433,,,,7.0
2020-07-31 17:26:42.437,,,,7.0
2020-07-31 17:26:42.441,,,,7.0
2020-07-31 17:26:42.445,,,,7.0
2020-07-31 17:26:42.449,,,,7.0
2020-07-31 17:26:42.453,,,,7.0
2020-07-31 17:26:42.457,,,,7.0
2020-07-31 17:26:42.460,,,,7.0
2020-07-31 17:26:42.464,,,,7.0
2020-07-31 17:26:42.468,,,,7.0
2020-07-31 17:26:42.472,,,,7.0
2020-07-31 17:26:42.476,,,,7.0
2020-07-31 17:26:42.480,,,,7.0
2020-07-31 17:26:42.484,,,,7.0
2020-07-31 17:26:42.488,,,,7.0
2020-07-31 17:26:42.492,,,,7.0
2020-07-31 17:26:42.496,,,,7.0
2020-07-31 17:26:42.500,,,,7.0
2020-07-31 17:26:42.503,,,,7.0
2020-07-31 17:26:42.507,,,,7.0
2020-07-31 17:26:42.511,,,,7.0
2020-07-31 17:26:42.515,,,,7.0
2020-07-31 17:26:42.519,,,,7.0
2020-07-31 17:26:42.523,,,,7.0
2020-07-31 17:26:42.527,,,,7.0
2020-07-31 17:26:42.531,,,,7.0
2020-07-31 17:26:42.535,,,,7.0
2020-07-31 17:26:42.539,,,,7.0
2020-07-31 17:26:42.542,,,,7.0
2020-07-31 17:26:42.546,,,,7.0
2020-07-31 17:26:42.550,,,,7.0
2020-07-31 17:26:42.554,,,,7.0
2020-07-31 17:26:42.558,,,,7.0
2020-07-31 17:26:42.562,,,,7.0
2020-07-31 17:26:42.566,,,,7.0
2020-07-31 17:26:42.570,,,,7.0
2020-07-31 17:26:42.574,,,,7.0
2020-07-31 17:26:42.578,,,,7.0
2020-07-31 17:26:42.582,,,,7.0
2020-07-31 17:26:42.585,,,,7.0
2020-07-31 17:26:42.589,,,,7.0
2020-07-31 17:26:42.593,,,,7.0
2020-07-31 17:26:42.597,,,,7.0
2020-07-31 17:26:42.601,,,,7.0
2020-07-31 17:26:42.605,,,,7.0
2020-07-31 17:26:42.609,,,,7.0
2020-07-31 17:26:42.613,,,,7.0
2020-07-31 17:26:42.617,,,,7.0
2020-07-31 17:26:42.621,,,,7.0
2020-07-31 17:26:42.625,,,,7.0
2020-07-31 17:26:42.628,,,,7.0
2020-07-31 17:26:42.632,,,,7.0
2020-07-31 17:26:42.636,,,,7.0
2020-07-31 17:26:42.640,,,,7.0
2020-07-31 17:26:42.644,,,,7.0
2020-07-31 17:26:42.648,,,,7.0
2020-07-31 17:26:42.652,,,,7.0
2020-07-31 17:26:42.656,,,,7.0
2020-07-31 17:26:42.660,,,,7.0
2020-07-31 17:26:42.664,,,,7.0
2020-07-31 17:26:42.667,,,,7.0
2020-07-31 17:26:42.671,,,,7.0
2020-07-31 17:26:42.675,,,,7.0
2020-07-31 17:26:42.679,,,,7.0
2020-07-31 17:26:42.683,,,,7.0
2020-07-31 17:26:42.687,,,,7.0
2020-07-31 17:26:42.691,,,,7.0
2020-07-31 17:26:42.695,,,,7.0
2020-07-31 17:26:42.699,,,,7.0
2020-07-31 17:26:42.703,,,,7.0
2020-07-31 17:26:42.707,,,,7.0
2020-07-31 17:26:42.710,,,,7.0
2020-07-31 17:26:42.714,,,,7.0
2020-07-31 17:26:42.718,,,,7.0
2020-07-31 17:26:42.722,,,,7.0
2020-07-31 17:26:42.726,,,,7.0
2020-07-31 17:26:42.730,,,,7.0
2020-07-31 17:26:42.734,,,,7.0
2020-07-31 17:26:42.738,,,,7.0
2020-07-31 17:26:42.742,,,,7.0
2020-07-31 17:26:42.746,,,,7.0
2020-07-31 17:26:42.750,,,,7.0
2020-07-31 17:26:42.753,,,,7.0
2020-07-31 17:26:42.757,,,,7.0
2020-07-31 17:26:42.761,,,,7.0
2020-07-31 17:26:42.765,,,,7.0
2020-07-31 17:26:42.769,,,,7.0
2020-07-31 17:26:42.773,,,,7.0
2020-07-31 17:26:42.777,,,,7.0
2020-07-31 17:26:42.781,,,,7.0
2020-07-31 17:26:42.785,,,,7.0
2020-07-31 17:26:42.789,,,,7.0
2020-07-31 17:26:42.792,,,,7.0
2020-07-31 17:26:42.796,,,,7.0
2020-07-31 17:26:42.800,,,,7.0
2020-07-31 17:26:42.804,,,,7.0
2020-07-31 17:26:42.808,,,,7.0
2020-07-31 17:26:42.812,,,,7.0
2020-07-31 17:26:42.816,,,,7.0
2020-07-31 17:26:42.820,,,,7.0
2020-07-31 17:26:42.824,,,,7.0
2020-07-31 17:26:42.828,,,,7.0
2020-07-31 17:26:42.832,,,,7.0
2020-07-31 17:26:42.835,,,,7.0
2020-07-31 17:26:42.839,,,,7.0
2020-07-31 17:26:42.843,,,,7.0
2020-07-31 17:26:42.847,,,,7.0
2020-07-31 17:26:42.851,,,,7.0
2020-07-31 17:26:42.855,,,,7.0
2020-07-31 17:26:42.859,,,,7.0
2020-07-31 17:26:42.863,,,,7.0
2020-07-31 17:26:42.867,,,,7.0
2020-07-31 17:26:42.871,,,,7.0
2020-07-31 17:26:42.875,,,,7.0
2020-07-31 17:26:42.878,,,,7.0
2020-07-31 17:26:42.882,,,,7.0
2020-07-31 17:26:42.886,,,,7.0
2020-07-31 17:26:42.890,,,,7.0
2020-07-31 17:26:42.894,,,,7.0
2020-07-31 17:26:42.898,,,,7.0
2020-07-31 17:26:42.902,,,,7.0
2020-07-31 17:26:42.906,,,,7.0
2020-07-31 17:26:42.910,,,,7.0
2020-07-31 17:26:42.914,,,,7.0
2020-07-31 17:26:42.917,,,,7.0
2020-07-31 17:26:42.921,,,,7.0
2020-07-31 17:26:42.925,,,,7.0
2020-07-31 17:26:42.929,,,,7.0
2020-07-31 17:26:42.933,,,,7.0
2020-07-31 17:26:42.937,,,,7.0
2020-07-31 17:26:42.941,,,,7.0
2020-07-31 17:26:42.945,,,,7.0
2020-07-31 17:26:42.949,,,,7.0
2020-07-31 17:26:42.953,,,,7.0
2020-07-31 17:26:42.957,,,,7.0
2020-07-31 17:26:42.960,,,,7.0
2020-07-31 17:26:42.964,,,,7.0
2020-07-31 17:26:42.968,,,,7.0
2020-07-31 17:26:42.972,,,,7.0
2020-07-31 17:26:42.976,,,,7.0
2020-07-31 17:26:42.980,,,,7.0
2020-07-31 17:26:42.984,,,,7.0
2020-07-31 17:26:42.988,,,,7.0
2020-07-31 17:26:42.992,,,,7.0
2020-07-31 17:26:42.996,,,,7.0
2020-07-31 17:26:43.000,,,,7.0
2020-07-31 17:26:43.003,,,,7.0
2020-07-31 17:26:43.007,,,,7.0
2020-07-31 17:26:43.011,,,,7.0
2020-07-31 17:26:43.015,,,,7.0
2020-07-31 17:26:43.019,,,,7.0
2020-07-31 17:26:43.023,,,,7.0
2020-07-31 17:26:43.027,,,,7.0
2020-07-31 17:26:43.031,,,,7.0
2020-07-31 17:26:43.035,,,,7.0
2020-07-31 17:26:43.039,,,,7.0
2020-07-31 17:26:43.042,,,,7.0
2020-07-31 17:26:43.046,,,,7.0
2020-07-31 17:26:43.050,,,,7.0
2020-07-31 17:26:43.054,,,,7.0
2020-07-31 17:26:43.058,,,,7.0
2020-07-31 17:26:43.062,,,,7.0
2020-07-31 17:26:43.066,,,,7.0
2020-07-31 17:26:43.070,,,,7.0
2020-07-31 17:26:43.074,,,,7.0
2020-07-31 17:26:43.078,,,,7.0
2020-07-31 17:26:43.082,,,,7.0
2020-07-31 17:26:43.085,,,,7.0
2020-07-31 17:26:43.089,,,,7.0
2020-07-31 17:26:43.093,,,,7.0
2020-07-31 17:26:43.097,,,,7.0
2020-07-31 17:26:43.101,,,,7.0
2020-07-31 17:26:43.105,,,,7.0
2020-07-31 17:26:43.109,,,,7.0
2020-07-31 17:26:43.113,,,,7.0
2020-07-31 17:26:43.117,,,,7.0
2020-07-31 17:26:43.121,,,,7.0
2020-07-31 17:26:43.125,,,,7.0
2020-07-31 17:26:43.128,,,,7.0
2020-07-31 17:26:43.132,,,,7.0
2020-07-31 17:26:43.136,,,,7.0
2020-07-31 17:26:43.140,,,,7.0
2020-07-31 17:26:43.144,,,,7.0
2020-07-31 17:26:43.148,,,,7.0
2020-07-31 17:26:43.152,,,,7.0
2020-07-31 17:26:43.156,,,,7.0
2020-07-31 17:26:43.160,,,,7.0
2020-07-31 17:26:43.164,,,,7.0
2020-07-31 17:26:43.167,,,,7.0
2020-07-31 17:26:43.171,,,,7.0
2020-07-31 17:26:43.175,,,,7.0
2020-07-31 17:26:43.179,,,,7.0
2020-07-31 17:26:43.183,,,,7.0
2020-07-31 17:26:43.187,,,,7.0
2020-07-31 17:26:43.191,,,,7.0
2020-07-31 17:26:43.195,,,,7.0
2020-07-31 17:26:43.199,,,,7.0
2020-07-31 17:26:43.203,,,,7.0
2020-07-31 17:26:43.207,,,,7.0
2020-07-31 17:26:43.210,,,,7.0
2020-07-31 17:26:43.214,,,,7.0
2020-07-31 17:26:43.218,,,,7.0
2020-07-31 17:26:43.222,,,,7.0
2020-07-31 17:26:43.226,,,,7.0
2020-07-31 17:26:43.230,,,,7.0
2020-07-31 17:26:43.234,,,,7.0
2020-07-31 17:26:43.238,,,,7.0
2020-07-31 17:26:43.242,,,,7.0
2020-07-31 17:26:43.246,,,,7.0
2020-07-31 17:26:43.250,,,,7.0
2020-07-31 17:26:43.253,,,,7.0
2020-07-31 17:26:43.257,,,,7.0
2020-07-31 17:26:43.261,,,,7.0
2020-07-31 17:26:43.265,,,,7.0
2020-07-31 17:26:43.269,,,,7.0
2020-07-31 17:26:43.273,,,,7.0
2020-07-31 17:26:43.277,,,,7.0
2020-07-31 17:26:43.281,,,,7.0
2020-07-31 17:26:43.285,,,,7.0
2020-07-31 17:26:43.289,,,,7.0
2020-07-31 17:26:43.292,,,,7.0
2020-07-31 17:26:43.296,,,,7.0
2020-07-31 17:26:43.300,,,,7.0
2020-07-31 17:26:43.304,,,,7.0
2020-07-31 17:26:43.308,,,,7.0
2020-07-31 17:26:43.312,,,,7.0
2020-07-31 17:26:43.316,,,,7.0
2020-07-31 17:26:43.320,,,,7.0
2020-07-31 17:26:43.324,,,,7.0
2020-07-31 17:26:43.328,,,,7.0
2020-07-31 17:26:43.332,,,,7.0
2020-07-31 17:26:43.335,,,,7.0
2020-07-31 17:26:43.339,,,,7.0
2020-07-31 17:26:43.343,,,,7.0
2020-07-31 17:26:43.347,,,,7.0
2020-07-31 17:26:43.351,,,,7.0
2020-07-31 17:26:43.355,,,,7.0
2020-07-31 17:26:43.359,,,,7.0
2020-07-31 17:26:43.363,,,,7.0
2020-07-31 17:26:43.367,,,,7.0
2020-07-31 17:26:43.371,,,,7.0
2020-07-31 17:26:43.375,,,,7.0
2020-07-31 17:26:43.378,,,,7.0
2020-07-31 17:26:43.382,,,,7.0
2020-07-31 17:26:43.386,,,,7.0
2020-07-31 17:26:43.390,,,,7.0
2020-07-31 17:26:43.394,,,,7.0
2020-07-31 17:26:43.398,,,,7.0
2020-07-31 17:26:43.402,,,,7.0
2020-07-31 17:26:43.406,,,,7.0
2020-07-31 17:26:43.410,,,,7.0
2020-07-31 17:26:43.414,,,,7.0
2020-07-31 17:26:43.417,,,,7.0
2020-07-31 17:26:43.421,,,,7.0
2020-07-31 17:26:43.425,,,,7.0
2020-07-31 17:26:43.429,,,,7.0
2020-07-31 17:26:43.433,,,,7.0
2020-07-31 17:26:43.437,,,,7.0
2020-07-31 17:26:43.441,,,,7.0
2020-07-31 17:26:43.445,,,,7.0
2020-07-31 17:26:43.449,,,,7.0
2020-07-31 17:26:43.453,,,,7.0
2020-07-31 17:26:43.457,,,,7.0
2020-07-31 17:26:43.460,,,,7.0
2020-07-31 17:26:43.464,,,,7.0
2020-07-31 17:26:43.468,,,,7.0
2020-07-31 17:26:43.472,,,,7.0
2020-07-31 17:26:43.476,,,,7.0
2020-07-31 17:26:43.480,,,,7.0
2020-07-31 17:26:43.484,,,,7.0
2020-07-31 17:26:43.488,,,,7.0
2020-07-31 17:26:43.492,,,,7.0
2020-07-31 17:26:43.496,,,,7.0
2020-07-31 17:26:43.500,,,,7.0
2020-07-31 17:26:43.503,,,,7.0
2020-07-31 17:26:43.507,,,,7.0
2020-07-31 17:26:43.511,,,,7.0
2020-07-31 17:26:43.515,,,,7.0
2020-07-31 17:26:43.519,,,,7.0
2020-07-31 17:26:43.523,,,,7.0
2020-07-31 17:26:43.527,,,,7.0
2020-07-31 17:26:43.531,,,,7.0
2020-07-31 17:26:43.535,,,,7.0
2020-07-31 17:26:43.539,,,,7.0
2020-07-31 17:26:43.542,,,,7.0
2020-07-31 17:26:43.546,,,,7.0
2020-07-31 17:26:43.550,,,,7.0
2020-07-31 17:26:43.554,,,,7.0
2020-07-31 17:26:43.558,,,,7.0
2020-07-31 17:26:43.562,,,,7.0
2020-07-31 17:26:43.566,,,,7.0
2020-07-31 17:26:43.570,,,,7.0
2020-07-31 17:26:43.574,,,,7.0
2020-07-31 17:26:43.578,,,,7.0
2020-07-31 17:26:43.582,,,,7.0
2020-07-31 17:26:43.585,,,,7.0
2020-07-31 17:26:43.589,,,,7.0
2020-07-31 17:26:43.593,,,,7.0
2020-07-31 17:26:43.597,,,,7.0
2020-07-31 17:26:43.601,,,,7.0
2020-07-31 17:26:43.605,,,,7.0
2020-07-31 17:26:43.609,,,,7.0
2020-07-31 17:26:43.613,,,,7.0
2020-07-31 17:26:43.617,,,,7.0
2020-07-31 17:26:43.621,,,,7.0
2020-07-31 17:26:43.625,,,,7.0
2020-07-31 17:26:43.628,,,,7.0
2020-07-31 17:26:43.632,,,,7.0
2020-07-31 17:26:43.636,,,,7.0
2020-07-31 17:26:43.640,,,,7.0
2020-07-31 17:26:43.644,,,,7.0
2020-07-31 17:26:43.648,,,,7.0
2020-07-31 17:26:43.652,,,,7.0
2020-07-31 17:26:43.656,,,,7.0
2020-07-31 17:26:43.660,,,,7.0
2020-07-31 17:26:43.664,,,,7.0
2020-07-31 17:26:43.667,,,,7.0
2020-07-31 17:26:43.671,,,,7.0
2020-07-31 17:26:43.675,,,,7.0
2020-07-31 17:26:43.679,,,,7.0
2020-07-31 17:26:43.683,,,,7.0
2020-07-31 17:26:43.687,,,,7.0
2020-07-31 17:26:43.691,,,,7.0
2020-07-31 17:26:43.695,,,,7.0
2020-07-31 17:26:43.699,,,,7.0
2020-07-31 17:26:43.703,,,,7.0
2020-07-31 17:26:43.707,,,,7.0
2020-07-31 17:26:43.710,,,,7.0
2020-07-31 17:26:43.714,,,,7.0
2020-07-31 17:26:43.718,,,,7.0
2020-07-31 17:26:43.722,,,,7.0
2020-07-31 17:26:43.726,,,,7.0
2020-07-31 17:26:43.730,,,,7.0
2020-07-31 17:26:43.734,,,,7.0
2020-07-31 17:26:43.738,,,,7.0
2020-07-31 17:26:43.742,,,,7.0
2020-07-31 17:26:43.746,,,,7.0
2020-07-31 17:26:43.750,,,,7.0
2020-07-31 17:26:43.753,,,,7.0
2020-07-31 17:26:43.757,,,,7.0
2020-07-31 17:26:43.761,,,,7.0
2020-07-31 17:26:43.765,,,,7.0
2020-07-31 17:26:43.769,,,,7.0
2020-07-31 17:26:43.773,,,,7.0
2020-07-31 17:26:43.777,,,,7.0
2020-07-31 17:26:43.781,,,,7.0
2020-07-31 17:26:43.785,,,,7.0
2020-07-31 17:26:43.789,,,,7.0
2020-07-31 17:26:43.792,,,,7.0
2020-07-31 17:26:43.796,,,,7.0
2020-07-31 17:26:43.800,,,,7.0
2020-07-31 17:26:43.804,,,,7.0
2020-07-31 17:26:43.808,,,,7.0
2020-07-31 17:26:43.812,,,,7.0
2020-07-31 17:26:43.816,,,,7.0
2020-07-31 17:26:43.820,,,,7.0
2020-07-31 17:26:43.824,,,,7.0
2020-07-31 17:26:43.828,,,,7.0
2020-07-31 17:26:43.832,,,,7.0
2020-07-31 17:26:43.835,,,,7.0
2020-07-31 17:26:43.839,,,,7.0
2020-07-31 17:26:43.843,,,,7.0
2020-07-31 17:26:43.847,,,,7.0
2020-07-31 17:26:43.851,,,,7.0
2020-07-31 17:26:43.855,,,,7.0
2020-07-31 17:26:43.859,,,,7.0
2020-07-31 17:26:43.863,,,,7.0
2020-07-31 17:26:43.867,,,,7.0
2020-07-31 17:26:43.871,,,,7.0
2020-07-31 17:26:43.875,,,,7.0
2020-07-31 17:26:43.878,,,,7.0
2020-07-31 17:26:43.882,,,,7.0
2020-07-31 17:26:43.886,,,,7.0
2020-07-31 17:26:43.890,,,,7.0
2020-07-31 17:26:43.894,,,,7.0
2020-07-31 17:26:43.898,,,,7.0
2020-07-31 17:26:43.902,,,,7.0
2020-07-31 17:26:43.906,,,,7.0
2020-07-31 17:26:43.910,,,,7.0
2020-07-31 17:26:43.914,,,,7.0
2020-07-31 17:26:43.917,,,,7.0
2020-07-31 17:26:43.921,,,,7.0
2020-07-31 17:26:43.925,,,,7.0
2020-07-31 17:26:43.929,,,,7.0
2020-07-31 17:26:43.933,,,,7.0
2020-07-31 17:26:43.937,,,,7.0
2020-07-31 17:26:43.941,,,,7.0
2020-07-31 17:26:43.945,,,,7.0
2020-07-31 17:26:43.949,,,,7.0
2020-07-31 17:26:43.953,,,,7.0
2020-07-31 17:26:43.957,,,,7.0
2020-07-31 17:26:43.960,,,,7.0
2020-07-31 17:26:43.964,,,,7.0
2020-07-31 17:26:43.968,,,,7.0
2020-07-31 17:26:43.972,,,,7.0
2020-07-31 17:26:43.976,,,,7.0
2020-07-31 17:26:43.980,,,,7.0
2020-07-31 17:26:43.984,,,,7.0
2020-07-31 17:26:43.988,,,,7.0
2020-07-31 17:26:43.992,,,,7.0
2020-07-31 17:26:43.996,,,,7.0
2020-07-31 17:26:44.000,,,,7.0
2020-07-31 17:26:44.003,,,,7.0
2020-07-31 17:26:44.007,,,,7.0
2020-07-31 17:26:44.011,,,,7.0
2020-07-31 17:26:44.015,,,,7.0
2020-07-31 17:26:44.019,,,,7.0
2020-07-31 17:26:44.023,,,,7.0
2020-07-31 17:26:44.027,,,,7.0
2020-07-31 17:26:44.031,,,,7.0
2020-07-31 17:26:44.035,,,,7.0
2020-07-31 17:26:44.039,,,,7.0
2020-07-31 17:26:44.042,,,,7.0
2020-07-31 17:26:44.046,,,,7.0
2020-07-31 17:26:44.050,,,,7.0
2020-07-31 17:26:44.054,,,,7.0
2020-07-31 17:26:44.058,,,,7.0
2020-07-31 17:26:44.062,,,,7.0
2020-07-31 17:26:44.066,,,,7.0
2020-07-31 17:26:44.070,,,,7.0
2020-07-31 17:26:44.074,,,,7.0
2020-07-31 17:26:44.078,,,,7.0
2020-07-31 17:26:44.082,,,,7.0
2020-07-31 17:26:44.085,,,,7.0
2020-07-31 17:26:44.089,,,,7.0
2020-07-31 17:26:44.093,,,,7.0
2020-07-31 17:26:44.097,,,,7.0
2020-07-31 17:26:44.101,,,,7.0
2020-07-31 17:26:44.105,,,,7.0
2020-07-31 17:26:44.109,,,,7.0
2020-07-31 17:26:44.113,,,,7.0
2020-07-31 17:26:44.117,,,,7.0
2020-07-31 17:26:44.121,,,,7.0
2020-07-31 17:26:44.125,,,,7.0
2020-07-31 17:26:44.128,,,,7.0
2020-07-31 17:26:44.132,,,,7.0
2020-07-31 17:26:44.136,,,,7.0
2020-07-31 17:26:44.140,,,,7.0
2020-07-31 17:26:44.144,,,,7.0
2020-07-31 17:26:44.148,,,,7.0
2020-07-31 17:26:44.152,,,,7.0
2020-07-31 17:26:44.156,,,,7.0
2020-07-31 17:26:44.160,,,,7.0
2020-07-31 17:26:44.164,,,,7.0
2020-07-31 17:26:44.167,,,,7.0
2020-07-31 17:26:44.171,,,,7.0
2020-07-31 17:26:44.175,,,,7.0
2020-07-31 17:26:44.179,,,,7.0
2020-07-31 17:26:44.183,,,,7.0
2020-07-31 17:26:44.187,,,,7.0
2020-07-31 17:26:44.191,,,,7.0
2020-07-31 17:26:44.195,,,,7.0
2020-07-31 17:26:44.199,,,,7.0
2020-07-31 17:26:44.203,,,,7.0
2020-07-31 17:26:44.207,,,,7.0
2020-07-31 17:26:44.210,,,,7.0
2020-07-31 17:26:44.214,,,,7.0
2020-07-31 17:26:44.218,,,,7.0
2020-07-31 17:26:44.222,,,,7.0
2020-07-31 17:26:44.226,,,,7.0
2020-07-31 17:26:44.230,,,,7.0
2020-07-31 17:26:44.234,,,,7.0
2020-07-31 17:26:44.238,,,,7.0
2020-07-31 17:26:44.242,,,,7.0
2020-07-31 17:26:44.246,,,,7.0
2020-07-31 17:26:44.250,,,,7.0
2020-07-31 17:26:44.253,,,,7.0
2020-07-31 17:26:44.257,,,,7.0
2020-07-31 17:26:44.261,,,,7.0
2020-07-31 17:26:44.265,,,,7.0
2020-07-31 17:26:44.269,,,,7.0
2020-07-31 17:26:44.273,,,,7.0
2020-07-31 17:26:44.277,,,,7.0
2020-07-31 17:26:44.281,,,,7.0
2020-07-31 17:26:44.285,,,,7.0
2020-07-31 17:26:44.289,,,,7.0
2020-07-31 17:26:44.292,,,,7.0
2020-07-31 17:26:44.296,,,,7.0
2020-07-31 17:26:44.300,,,,7.0
2020-07-31 17:26:44.304,,,,7.0
2020-07-31 17:26:44.308,,,,7.0
2020-07-31 17:26:44.312,,,,7.0
2020-07-31 17:26:44.316,,,,7.0
2020-07-31 17:26:44.320,,,,7.0
2020-07-31 17:26:44.324,,,,7.0
2020-07-31 17:26:44.328,,,,7.0
2020-07-31 17:26:44.332,,,,7.0
2020-07-31 17:26:44.335,,,,7.0
2020-07-31 17:26:44.339,,,,7.0
2020-07-31 17:26:44.343,,,,7.0
2020-07-31 17:26:44.347,,,,7.0
2020-07-31 17:26:44.351,,,,7.0
2020-07-31 17:26:44.355,,,,7.0
2020-07-31 17:26:44.359,,,,7.0
2020-07-31 17:26:44.363,,,,7.0
2020-07-31 17:26:44.367,,,,7.0
2020-07-31 17:26:44.371,,,,7.0
2020-07-31 17:26:44.375,,,,7.0
2020-07-31 17:26:44.378,,,,7.0
2020-07-31 17:26:44.382,,,,7.0
2020-07-31 17:26:44.386,,,,7.0
2020-07-31 17:26:44.390,,,,7.0
2020-07-31 17:26:44.394,,,,7.0
2020-07-31 17:26:44.398,,,,7.0
2020-07-31 17:26:44.402,,,,7.0
2020-07-31 17:26:44.406,,,,7.0
2020-07-31 17:26:44.410,,,,7.0
2020-07-31 17:26:44.414,,,,7.0
2020-07-31 17:26:44.417,,,,7.0
2020-07-31 17:26:44.421,,,,7.0
2020-07-31 17:26:44.425,,,,7.0
2020-07-31 17:26:44.429,,,,7.0
2020-07-31 17:26:44.433,,,,7.0
2020-07-31 17:26:44.437,,,,7.0
2020-07-31 17:26:44.441,,,,7.0
2020-07-31 17:26:44.445,,,,7.0
2020-07-31 17:26:44.449,,,,7.0
2020-07-31 17:26:44.453,,,,7.0
2020-07-31 17:26:44.457,,,,7.0
2020-07-31 17:26:44.460,,,,7.0
2020-07-31 17:26:44.464,,,,7.0
2020-07-31 17:26:44.468,,,,7.0
2020-07-31 17:26:44.472,,,,7.0
2020-07-31 17:26:44.476,,,,7.0
2020-07-31 17:26:44.480,,,,7.0
2020-07-31 17:26:44.484,,,,7.0
2020-07-31 17:26:44.488,,,,7.0
2020-07-31 17:26:44.492,,,,7.0
2020-07-31 17:26:44.496,,,,7.0
2020-07-31 17:26:44.500,,,,7.0
2020-07-31 17:26:44.503,,,,7.0
2020-07-31 17:26:44.507,,,,7.0
2020-07-31 17:26:44.511,,,,7.0
2020-07-31 17:26:44.515,,,,7.0
2020-07-31 17:26:44.519,,,,7.0
2020-07-31 17:26:44.523,,,,7.0
2020-07-31 17:26:44.527,,,,7.0
2020-07-31 17:26:44.531,,,,7.0
2020-07-31 17:26:44.535,,,,7.0
2020-07-31 17:26:44.539,,,,7.0
2020-07-31 17:26:44.542,,,,7.0
2020-07-31 17:26:44.546,,,,7.0
2020-07-31 17:26:44.550,,,,7.0
2020-07-31 17:26:44.554,,,,7.0
2020-07-31 17:26:44.558,,,,7.0
2020-07-31 17:26:44.562,,,,7.0
2020-07-31 17:26:44.566,,,,7.0
2020-07-31 17:26:44.570,,,,7.0
2020-07-31 17:26:44.574,,,,7.0
2020-07-31 17:26:44.578,,,,7.0
2020-07-31 17:26:44.582,,,,7.0
2020-07-31 17:26:44.585,,,,7.0
2020-07-31 17:26:44.589,,,,7.0
2020-07-31 17:26:44.593,,,,7.0
2020-07-31 17:26:44.597,,,,7.0
2020-07-31 17:26:44.601,,,,7.0
2020-07-31 17:26:44.605,,,,7.0
2020-07-31 17:26:44.609,,,,7.0
2020-07-31 17:26:44.613,,,,7.0
2020-07-31 17:26:44.617,,,,7.0
2020-07-31 17:26:44.621,,,,7.0
2020-07-31 17:26:44.625,,,,7.0
2020-07-31 17:26:44.628,,,,7.0
2020-07-31 17:26:44.632,,,,7.0
2020-07-31 17:26:44.636,,,,7.0
2020-07-31 17:26:44.640,,,,7.0
2020-07-31 17:26:44.644,,,,7.0
2020-07-31 17:26:44.648,,,,7.0
2020-07-31 17:26:44.652,,,,7.0
2020-07-31 17:26:44.656,,,,7.0
2020-07-31 17:26:44.660,,,,7.0
2020-07-31 17:26:44.664,,,,7.0
2020-07-31 17:26:44.667,,,,7.0
2020-07-31 17:26:44.671,,,,7.0
2020-07-31 17:26:44.675,,,,7.0
2020-07-31 17:26:44.679,,,,7.0
2020-07-31 17:26:44.683,,,,7.0
2020-07-31 17:26:44.687,,,,7.0
2020-07-31 17:26:44.691,,,,7.0
2020-07-31 17:26:44.695,,,,7.0
2020-07-31 17:26:44.699,,,,7.0
2020-07-31 17:26:44.703,,,,7.0
2020-07-31 17:26:44.707,,,,7.0
2020-07-31 17:26:44.710,,,,7.0
2020-07-31 17:26:44.714,,,,7.0
2020-07-31 17:26:44.718,,,,7.0
2020-07-31 17:26:44.722,,,,7.0
2020-07-31 17:26:44.726,,,,7.0
2020-07-31 17:26:44.730,,,,7.0
2020-07-31 17:26:44.734,,,,7.0
2020-07-31 17:26:44.738,,,,7.0
2020-07-31 17:26:44.742,,,,7.0
2020-07-31 17:26:44.746,,,,7.0
2020-07-31 17:26:44.750,,,,7.0
2020-07-31 17:26:44.753,,,,7.0
2020-07-31 17:26:44.757,,,,7.0
2020-07-31 17:26:44.761,,,,7.0
2020-07-31 17:26:44.765,,,,7.0
2020-07-31 17:26:44.769,,,,7.0
2020-07-31 17:26:44.773,,,,7.0
2020-07-31 17:26:44.777,,,,7.0
2020-07-31 17:26:44.781,,,,7.0
2020-07-31 17:26:44.785,,,,7.0
2020-07-31 17:26:44.789,,,,7.0
2020-07-31 17:26:44.792,,,,7.0
2020-07-31 17:26:44.796,,,,7.0
2020-07-31 17:26:44.800,,,,7.0
2020-07-31 17:26:44.804,,,,7.0
2020-07-31 17:26:44.808,,,,7.0
2020-07-31 17:26:44.812,,,,7.0
2020-07-31 17:26:44.816,,,,7.0
2020-07-31 17:26:44.820,,,,7.0
2020-07-31 17:26:44.824,,,,7.0
2020-07-31 17:26:44.828,,,,7.0
2020-07-31 17:26:44.832,,,,7.0
2020-07-31 17:26:44.835,,,,7.0
2020-07-31 17:26:44.839,,,,7.0
2020-07-31 17:26:44.843,,,,7.0
2020-07-31 17:26:44.847,,,,7.0
2020-07-31 17:26:44.851,,,,7.0
2020-07-31 17:26:44.855,,,,7.0
2020-07-31 17:26:44.859,,,,7.0
2020-07-31 17:26:44.863,,,,7.0
2020-07-31 17:26:44.867,,,,7.0
2020-07-31 17:26:44.871,,,,7.0
2020-07-31 17:26:44.875,,,,7.0
2020-07-31 17:26:44.878,,,,7.0
2020-07-31 17:26:44.882,,,,7.0
2020-07-31 17:26:44.886,,,,7.0
2020-07-31 17:26:44.890,,,,7.0
2020-07-31 17:26:44.894,,,,7.0
2020-07-31 17:26:44.898,,,,7.0
2020-07-31 17:26:44.902,,,,7.0
2020-07-31 17:26:44.906,,,,7.0
2020-07-31 17:26:44.910,,,,7.0
2020-07-31 17:26:44.914,,,,7.0
2020-07-31 17:26:44.917,,,,7.0
2020-07-31 17:26:44.921,,,,7.0
2020-07-31 17:26:44.925,,,,7.0
2020-07-31 17:26:44.929,,,,7.0
2020-07-31 17:26:44.933,,,,7.0
2020-07-31 17:26:44.937,,,,7.0
2020-07-31 17:26:44.941,,,,7.0
2020-07-31 17:26:44.945,,,,7.0
2020-07-31 17:26:44.949,,,,7.0
2020-07-31 17:26:44.953,,,,7.0
2020-07-31 17:26:44.957,,,,7.0
2020-07-31 17:26:44.960,,,,7.0
2020-07-31 17:26:44.964,,,,7.0
2020-07-31 17:26:44.968,,,,7.0
2020-07-31 17:26:44.972,,,,7.0
2020-07-31 17:26:44.976,,,,7.0
2020-07-31 17:26:44.980,,,,7.0
2020-07-31 17:26:44.984,,,,7.0
2020-07-31 17:26:44.988,,,,7.0
2020-07-31 17:26:44.992,,,,7.0
2020-07-31 17:26:44.996,,,,7.0
2020-07-31 17:26:45.000,,,,7.0
2020-07-31 17:26:45.003,,,,7.0
2020-07-31 17:26:45.007,,,,7.0
2020-07-31 17:26:45.011,,,,7.0
2020-07-31 17:26:45.015,,,,7.0
2020-07-31 17:26:45.019,,,,7.0
2020-07-31 17:26:45.023,,,,7.0
2020-07-31 17:26:45.027,,,,7.0
2020-07-31 17:26:45.031,,,,7.0
2020-07-31 17:26:45.035,,,,7.0
2020-07-31 17:26:45.039,,,,7.0
2020-07-31 17:26:45.042,,,,7.0
2020-07-31 17:26:45.046,,,,7.0
2020-07-31 17:26:45.050,,,,7.0
2020-07-31 17:26:45.054,,,,7.0
2020-07-31 17:26:45.058,,,,7.0
2020-07-31 17:26:45.062,,,,7.0
2020-07-31 17:26:45.066,,,,7.0
2020-07-31 17:26:45.070,,,,7.0
2020-07-31 17:26:45.074,,,,7.0
2020-07-31 17:26:45.078,,,,7.0
2020-07-31 17:26:45.082,,,,7.0
2020-07-31 17:26:45.085,,,,7.0
2020-07-31 17:26:45.089,,,,7.0
2020-07-31 17:26:45.093,,,,7.0
2020-07-31 17:26:45.097,,,,7.0
2020-07-31 17:26:45.101,,,,7.0
2020-07-31 17:26:45.105,,,,7.0
